File: CD-Mxene3-5Ag-DESCARGA.txt
Time (s);WE(1).Potential (V);Corrected time (s);Index;WE(1).Current (A);Current range;Cutoffs
289.314;0.777588;0;1;-4.40674e-05;10 mA;WE(1).Potential < -0,1 V , WE(1).Potential < -0,1 V , WE(1).Potential < -0,1 V , WE(1).Potential < -0,1 V
289.514;0.759583;0.2;2;-4.41895e-05;10 mA;
289.714;0.74646;0.4;3;-4.41895e-05;10 mA;
289.914;0.735474;0.6;4;-4.43115e-05;10 mA;
290.114;0.726013;0.8;5;-4.44336e-05;10 mA;
290.314;0.717773;1;6;-4.44946e-05;10 mA;
290.514;0.710144;1.2;7;-4.40674e-05;10 mA;
290.714;0.703125;1.4;8;-4.40369e-05;10 mA;
290.914;0.696411;1.6;9;-4.422e-05;10 mA;
291.114;0.690308;1.8;10;-4.4342e-05;10 mA;
291.314;0.684204;2;11;-4.43115e-05;10 mA;
291.514;0.678711;2.2;12;-4.40979e-05;10 mA;
291.714;0.673218;2.4;13;-4.41284e-05;10 mA;
291.914;0.66803;2.6;14;-4.43726e-05;10 mA;
292.114;0.662842;2.8;15;-4.38843e-05;10 mA;
292.314;0.657959;3;16;-4.46167e-05;10 mA;
292.514;0.653076;3.2;17;-4.41284e-05;10 mA;
292.714;0.648499;3.4;18;-4.36707e-05;10 mA;
292.914;0.643921;3.6;19;-4.4281e-05;10 mA;
293.114;0.639343;3.8;20;-4.40369e-05;10 mA;
293.314;0.635071;4;21;-4.422e-05;10 mA;
293.514;0.630798;4.2;22;-4.40674e-05;10 mA;
293.714;0.626831;4.4;23;-4.42505e-05;10 mA;
293.914;0.622559;4.6;24;-4.43115e-05;10 mA;
294.114;0.618286;4.8;25;-4.4342e-05;10 mA;
294.314;0.614624;5;26;-4.4281e-05;10 mA;
294.514;0.610657;5.2;27;-4.4342e-05;10 mA;
294.714;0.606689;5.4;28;-4.44946e-05;10 mA;
294.914;0.603027;5.6;29;-4.41284e-05;10 mA;
295.114;0.59906;5.8;30;-4.422e-05;10 mA;
295.314;0.595398;6;31;-4.40979e-05;10 mA;
295.514;0.591736;6.2;32;-4.42505e-05;10 mA;
295.714;0.588379;6.4;33;-4.43726e-05;10 mA;
295.914;0.584717;6.6;34;-4.4281e-05;10 mA;
296.114;0.58136;6.8;35;-4.43115e-05;10 mA;
296.314;0.577698;7;36;-4.4342e-05;10 mA;
296.514;0.574341;7.2;37;-4.40063e-05;10 mA;
296.714;0.570984;7.4;38;-4.40979e-05;10 mA;
296.914;0.567627;7.6;39;-4.40979e-05;10 mA;
297.114;0.564575;7.8;40;-4.42505e-05;10 mA;
297.314;0.561218;8;41;-4.41284e-05;10 mA;
297.514;0.558167;8.2;42;-4.40979e-05;10 mA;
297.714;0.55481;8.4;43;-4.41589e-05;10 mA;
297.914;0.551758;8.6;44;-4.4281e-05;10 mA;
298.114;0.548706;8.8;45;-4.40369e-05;10 mA;
298.314;0.545654;9;46;-4.43115e-05;10 mA;
298.514;0.542603;9.2;47;-4.39758e-05;10 mA;
298.714;0.539551;9.4;48;-4.4281e-05;10 mA;
298.914;0.536804;9.6;49;-4.40369e-05;10 mA;
299.114;0.533752;9.8;50;-4.41589e-05;10 mA;
299.314;0.531006;10;51;-4.42505e-05;10 mA;
299.514;0.527954;10.2;52;-4.40979e-05;10 mA;
299.714;0.525208;10.4;53;-4.41589e-05;10 mA;
299.914;0.522461;10.6;54;-4.44641e-05;10 mA;
300.114;0.519714;10.8;55;-4.40674e-05;10 mA;
300.314;0.516968;11;56;-4.44946e-05;10 mA;
300.514;0.514221;11.2;57;-4.41284e-05;10 mA;
300.714;0.511475;11.4;58;-4.40063e-05;10 mA;
300.914;0.508728;11.6;59;-4.4281e-05;10 mA;
301.114;0.506287;11.8;60;-4.43115e-05;10 mA;
301.314;0.50354;12;61;-4.42505e-05;10 mA;
301.514;0.501099;12.2;62;-4.44031e-05;10 mA;
301.714;0.498657;12.4;63;-4.40979e-05;10 mA;
301.914;0.496124;12.6;64;-4.43726e-05;10 mA;
302.114;0.493622;12.8;65;-4.40674e-05;10 mA;
302.314;0.49115;13;66;-4.41284e-05;10 mA;
302.514;0.488739;13.2;67;-4.45557e-05;10 mA;
302.714;0.486328;13.4;68;-4.4281e-05;10 mA;
302.914;0.483917;13.6;69;-4.43115e-05;10 mA;
303.114;0.481567;13.8;70;-4.4342e-05;10 mA;
303.314;0.479218;14;71;-4.39758e-05;10 mA;
303.514;0.476837;14.2;72;-4.43115e-05;10 mA;
303.714;0.474548;14.4;73;-4.41284e-05;10 mA;
303.914;0.472229;14.6;74;-4.44031e-05;10 mA;
304.114;0.470001;14.8;75;-4.45557e-05;10 mA;
304.314;0.467834;15;76;-4.41284e-05;10 mA;
304.514;0.465576;15.2;77;-4.44336e-05;10 mA;
304.714;0.463318;15.4;78;-4.41589e-05;10 mA;
304.914;0.461151;15.6;79;-4.40674e-05;10 mA;
305.114;0.458923;15.8;80;-4.422e-05;10 mA;
305.314;0.456757;16;81;-4.44946e-05;10 mA;
305.514;0.454651;16.2;82;-4.4281e-05;10 mA;
305.714;0.452576;16.4;83;-4.4342e-05;10 mA;
305.914;0.45047;16.6;84;-4.44336e-05;10 mA;
306.114;0.448364;16.8;85;-4.46167e-05;10 mA;
306.314;0.44632;17;86;-4.45251e-05;10 mA;
306.514;0.444275;17.2;87;-4.46167e-05;10 mA;
306.714;0.442261;17.4;88;-4.45557e-05;10 mA;
306.914;0.440247;17.6;89;-4.44946e-05;10 mA;
307.114;0.438263;17.8;90;-4.45557e-05;10 mA;
307.314;0.43631;18;91;-4.45862e-05;10 mA;
307.514;0.434357;18.2;92;-4.46167e-05;10 mA;
307.714;0.432404;18.4;93;-4.45557e-05;10 mA;
307.914;0.430511;18.6;94;-4.46777e-05;10 mA;
308.114;0.428619;18.8;95;-4.45557e-05;10 mA;
308.314;0.426758;19;96;-4.47693e-05;10 mA;
308.514;0.424896;19.2;97;-4.4281e-05;10 mA;
308.714;0.423065;19.4;98;-4.44031e-05;10 mA;
308.914;0.421204;19.6;99;-4.43726e-05;10 mA;
309.114;0.419464;19.8;100;-4.44641e-05;10 mA;
309.314;0.417664;20;101;-4.44946e-05;10 mA;
309.514;0.415894;20.2;102;-4.47998e-05;10 mA;
309.714;0.414124;20.4;103;-4.44641e-05;10 mA;
309.914;0.412384;20.6;104;-4.46777e-05;10 mA;
310.114;0.410675;20.8;105;-4.49524e-05;10 mA;
310.314;0.408936;21;106;-4.46777e-05;10 mA;
310.514;0.407257;21.2;107;-4.47998e-05;10 mA;
310.714;0.405609;21.4;108;-4.46777e-05;10 mA;
310.914;0.403961;21.6;109;-4.45557e-05;10 mA;
311.114;0.402283;21.8;110;-4.44641e-05;10 mA;
311.314;0.400696;22;111;-4.47693e-05;10 mA;
311.514;0.399109;22.2;112;-4.47083e-05;10 mA;
311.714;0.397491;22.4;113;-4.47083e-05;10 mA;
311.914;0.395905;22.6;114;-4.46167e-05;10 mA;
312.114;0.394348;22.8;115;-4.46777e-05;10 mA;
312.314;0.392761;23;116;-4.45557e-05;10 mA;
312.514;0.391235;23.2;117;-4.48303e-05;10 mA;
312.714;0.389709;23.4;118;-4.45251e-05;10 mA;
312.914;0.388245;23.6;119;-4.47693e-05;10 mA;
313.114;0.386749;23.8;120;-4.44946e-05;10 mA;
313.314;0.385223;24;121;-4.45251e-05;10 mA;
313.514;0.383759;24.2;122;-4.48303e-05;10 mA;
313.714;0.382263;24.4;123;-4.47388e-05;10 mA;
313.914;0.380829;24.6;124;-4.44641e-05;10 mA;
314.114;0.379425;24.8;125;-4.50134e-05;10 mA;
314.314;0.37796;25;126;-4.47693e-05;10 mA;
314.514;0.376556;25.2;127;-4.48303e-05;10 mA;
314.714;0.375153;25.4;128;-4.45862e-05;10 mA;
314.914;0.373749;25.6;129;-4.45557e-05;10 mA;
315.114;0.372375;25.8;130;-4.49524e-05;10 mA;
315.314;0.371002;26;131;-4.44641e-05;10 mA;
315.514;0.369629;26.2;132;-4.47083e-05;10 mA;
315.714;0.368286;26.4;133;-4.44641e-05;10 mA;
315.914;0.366913;26.6;134;-4.47388e-05;10 mA;
316.114;0.365601;26.8;135;-4.46777e-05;10 mA;
316.314;0.364288;27;136;-4.49524e-05;10 mA;
316.514;0.362946;27.2;137;-4.49829e-05;10 mA;
316.714;0.361603;27.4;138;-4.49524e-05;10 mA;
316.914;0.360291;27.6;139;-4.46167e-05;10 mA;
317.114;0.359039;27.8;140;-4.47998e-05;10 mA;
317.314;0.357758;28;141;-4.51355e-05;10 mA;
317.514;0.356537;28.2;142;-4.46167e-05;10 mA;
317.714;0.355286;28.4;143;-4.46777e-05;10 mA;
317.914;0.354034;28.6;144;-4.46167e-05;10 mA;
318.114;0.352783;28.8;145;-4.46777e-05;10 mA;
318.314;0.351532;29;146;-4.47998e-05;10 mA;
318.514;0.350281;29.2;147;-4.47693e-05;10 mA;
318.714;0.34906;29.4;148;-4.46777e-05;10 mA;
318.914;0.347839;29.6;149;-4.44946e-05;10 mA;
319.114;0.346588;29.8;150;-4.44641e-05;10 mA;
319.314;0.345367;30;151;-4.47083e-05;10 mA;
319.514;0.344147;30.2;152;-4.47388e-05;10 mA;
319.714;0.342987;30.4;153;-4.48608e-05;10 mA;
319.914;0.341797;30.6;154;-4.47083e-05;10 mA;
320.114;0.340637;30.8;155;-4.42505e-05;10 mA;
320.314;0.339447;31;156;-4.44641e-05;10 mA;
320.514;0.338318;31.2;157;-4.49219e-05;10 mA;
320.714;0.337128;31.4;158;-4.45557e-05;10 mA;
320.914;0.3359375;31.6;159;-4.49524e-05;10 mA;
321.114;0.334778;31.8;160;-4.47388e-05;10 mA;
321.314;0.333679;32;161;-4.47998e-05;10 mA;
321.514;0.33252;32.2;162;-4.47693e-05;10 mA;
321.714;0.331329;32.4;163;-4.47388e-05;10 mA;
321.914;0.3302;32.6;164;-4.46777e-05;10 mA;
322.114;0.329041;32.8;165;-4.45251e-05;10 mA;
322.314;0.327911;33;166;-4.46472e-05;10 mA;
322.514;0.326813;33.2;167;-4.46777e-05;10 mA;
322.714;0.325684;33.4;168;-4.47998e-05;10 mA;
322.914;0.324554;33.6;169;-4.50439e-05;10 mA;
323.114;0.323486;33.8;170;-4.47388e-05;10 mA;
323.314;0.322327;34;171;-4.50745e-05;10 mA;
323.514;0.321228;34.2;172;-4.48608e-05;10 mA;
323.714;0.320129;34.4;173;-4.47388e-05;10 mA;
323.914;0.319031;34.6;174;-4.47998e-05;10 mA;
324.114;0.317932;34.8;175;-4.45862e-05;10 mA;
324.314;0.316803;35;176;-4.45251e-05;10 mA;
324.514;0.315796;35.2;177;-4.45251e-05;10 mA;
324.714;0.314667;35.4;178;-4.47693e-05;10 mA;
324.914;0.313568;35.6;179;-4.50134e-05;10 mA;
325.114;0.3125;35.8;180;-4.46777e-05;10 mA;
325.314;0.311401;36;181;-4.46167e-05;10 mA;
325.514;0.310364;36.2;182;-4.44641e-05;10 mA;
325.714;0.309326;36.4;183;-4.48608e-05;10 mA;
325.914;0.308258;36.6;184;-4.52271e-05;10 mA;
326.114;0.30719;36.8;185;-4.45557e-05;10 mA;
326.314;0.306152;37;186;-4.46777e-05;10 mA;
326.514;0.305115;37.2;187;-4.46472e-05;10 mA;
326.714;0.304047;37.4;188;-4.49219e-05;10 mA;
326.914;0.30304;37.6;189;-4.46472e-05;10 mA;
327.114;0.301971;37.8;190;-4.45251e-05;10 mA;
327.314;0.300934;38;191;-4.47998e-05;10 mA;
327.514;0.299866;38.2;192;-4.46472e-05;10 mA;
327.714;0.298798;38.4;193;-4.45251e-05;10 mA;
327.914;0.297821;38.6;194;-4.48608e-05;10 mA;
328.114;0.296753;38.8;195;-4.45862e-05;10 mA;
328.314;0.295715;39;196;-4.48303e-05;10 mA;
328.514;0.294678;39.2;197;-4.44336e-05;10 mA;
328.714;0.293701;39.4;198;-4.49829e-05;10 mA;
328.914;0.292633;39.6;199;-4.46167e-05;10 mA;
329.114;0.291595;39.8;200;-4.48608e-05;10 mA;
329.314;0.290558;40;201;-4.45557e-05;10 mA;
329.514;0.28952;40.2;202;-4.5105e-05;10 mA;
329.714;0.288483;40.4;203;-4.44641e-05;10 mA;
329.914;0.287476;40.6;204;-4.50134e-05;10 mA;
330.114;0.286438;40.8;205;-4.49524e-05;10 mA;
330.314;0.2854;41;206;-4.52576e-05;10 mA;
330.514;0.284363;41.2;207;-4.47998e-05;10 mA;
330.714;0.283325;41.4;208;-4.48608e-05;10 mA;
330.914;0.282288;41.6;209;-4.49524e-05;10 mA;
331.114;0.281311;41.8;210;-4.48303e-05;10 mA;
331.314;0.280304;42;211;-4.46777e-05;10 mA;
331.514;0.279297;42.2;212;-4.4342e-05;10 mA;
331.714;0.27829;42.4;213;-4.45862e-05;10 mA;
331.914;0.277252;42.6;214;-4.48608e-05;10 mA;
332.114;0.276245;42.8;215;-4.49829e-05;10 mA;
332.314;0.275238;43;216;-4.48608e-05;10 mA;
332.514;0.274261;43.2;217;-4.47693e-05;10 mA;
332.714;0.273254;43.4;218;-4.47998e-05;10 mA;
332.914;0.272217;43.6;219;-4.47083e-05;10 mA;
333.114;0.27121;43.8;220;-4.44336e-05;10 mA;
333.314;0.270203;44;221;-4.50134e-05;10 mA;
333.514;0.269165;44.2;222;-4.46167e-05;10 mA;
333.714;0.268158;44.4;223;-4.48914e-05;10 mA;
333.914;0.26712;44.6;224;-4.44946e-05;10 mA;
334.114;0.266113;44.8;225;-4.46472e-05;10 mA;
334.314;0.265076;45;226;-4.47083e-05;10 mA;
334.514;0.264069;45.2;227;-4.46167e-05;10 mA;
334.714;0.263092;45.4;228;-4.46777e-05;10 mA;
334.914;0.262085;45.6;229;-4.47083e-05;10 mA;
335.114;0.261047;45.8;230;-4.45862e-05;10 mA;
335.314;0.26001;46;231;-4.46777e-05;10 mA;
335.514;0.259003;46.2;232;-4.51355e-05;10 mA;
335.714;0.257965;46.4;233;-4.46167e-05;10 mA;
335.914;0.256958;46.6;234;-4.45862e-05;10 mA;
336.114;0.255951;46.8;235;-4.47388e-05;10 mA;
336.314;0.254913;47;236;-4.48608e-05;10 mA;
336.514;0.253937;47.2;237;-4.46777e-05;10 mA;
336.714;0.25293;47.4;238;-4.48608e-05;10 mA;
336.914;0.251923;47.6;239;-4.47693e-05;10 mA;
337.114;0.250885;47.8;240;-4.49219e-05;10 mA;
337.314;0.249817;48;241;-4.47083e-05;10 mA;
337.514;0.24881;48.2;242;-4.47693e-05;10 mA;
337.714;0.247772;48.4;243;-4.43115e-05;10 mA;
337.914;0.246765;48.6;244;-4.45862e-05;10 mA;
338.114;0.245697;48.8;245;-4.47083e-05;10 mA;
338.314;0.244659;49;246;-4.42505e-05;10 mA;
338.514;0.243622;49.2;247;-4.48914e-05;10 mA;
338.714;0.242584;49.4;248;-4.47998e-05;10 mA;
338.914;0.241516;49.6;249;-4.48914e-05;10 mA;
339.114;0.240479;49.8;250;-4.48914e-05;10 mA;
339.314;0.239471;50;251;-4.46167e-05;10 mA;
339.514;0.238434;50.2;252;-4.45251e-05;10 mA;
339.714;0.237427;50.4;253;-4.47998e-05;10 mA;
339.914;0.236389;50.6;254;-4.45251e-05;10 mA;
340.114;0.235352;50.8;255;-4.43726e-05;10 mA;
340.314;0.234344;51;256;-4.43726e-05;10 mA;
340.514;0.233307;51.2;257;-4.44641e-05;10 mA;
340.714;0.232269;51.4;258;-4.48303e-05;10 mA;
340.914;0.231201;51.6;259;-4.46777e-05;10 mA;
341.114;0.230164;51.8;260;-4.50439e-05;10 mA;
341.314;0.229126;52;261;-4.47693e-05;10 mA;
341.514;0.228088;52.2;262;-4.46167e-05;10 mA;
341.714;0.227051;52.4;263;-4.47388e-05;10 mA;
341.914;0.225983;52.6;264;-4.48303e-05;10 mA;
342.114;0.224945;52.8;265;-4.48608e-05;10 mA;
342.314;0.223877;53;266;-4.46472e-05;10 mA;
342.514;0.22287;53.2;267;-4.45862e-05;10 mA;
342.714;0.221832;53.4;268;-4.46777e-05;10 mA;
342.914;0.220825;53.6;269;-4.44946e-05;10 mA;
343.114;0.219727;53.8;270;-4.4342e-05;10 mA;
343.314;0.218719;54;271;-4.46777e-05;10 mA;
343.514;0.217651;54.2;272;-4.46167e-05;10 mA;
343.714;0.216614;54.4;273;-4.48303e-05;10 mA;
343.914;0.215546;54.6;274;-4.46777e-05;10 mA;
344.114;0.214508;54.8;275;-4.47083e-05;10 mA;
344.314;0.21347;55;276;-4.46167e-05;10 mA;
344.514;0.212372;55.2;277;-4.50745e-05;10 mA;
344.714;0.211334;55.4;278;-4.44031e-05;10 mA;
344.914;0.210266;55.6;279;-4.46777e-05;10 mA;
345.114;0.209198;55.8;280;-4.45862e-05;10 mA;
345.314;0.20816;56;281;-4.47998e-05;10 mA;
345.514;0.207092;56.2;282;-4.47083e-05;10 mA;
345.714;0.206055;56.4;283;-4.49829e-05;10 mA;
345.914;0.205017;56.6;284;-4.49219e-05;10 mA;
346.114;0.203888;56.8;285;-4.50439e-05;10 mA;
346.314;0.202911;57;286;-4.48608e-05;10 mA;
346.514;0.201813;57.2;287;-4.48608e-05;10 mA;
346.714;0.200745;57.4;288;-4.47083e-05;10 mA;
346.914;0.199707;57.6;289;-4.46777e-05;10 mA;
347.114;0.198608;57.8;290;-4.47693e-05;10 mA;
347.314;0.19754;58;291;-4.46777e-05;10 mA;
347.514;0.196503;58.2;292;-4.45251e-05;10 mA;
347.714;0.195465;58.4;293;-4.48303e-05;10 mA;
347.914;0.194366;58.6;294;-4.47693e-05;10 mA;
348.114;0.193329;58.8;295;-4.50745e-05;10 mA;
348.314;0.19223;59;296;-4.46472e-05;10 mA;
348.514;0.191162;59.2;297;-4.46777e-05;10 mA;
348.714;0.190063;59.4;298;-4.48914e-05;10 mA;
348.914;0.188995;59.6;299;-4.48608e-05;10 mA;
349.114;0.187927;59.8;300;-4.47998e-05;10 mA;
349.314;0.186859;60;301;-4.49829e-05;10 mA;
349.514;0.18576;60.2;302;-4.48303e-05;10 mA;
349.714;0.184631;60.4;303;-4.5105e-05;10 mA;
349.914;0.183563;60.6;304;-4.47388e-05;10 mA;
350.114;0.182465;60.8;305;-4.49829e-05;10 mA;
350.314;0.181396;61;306;-4.46777e-05;10 mA;
350.514;0.180267;61.2;307;-4.45557e-05;10 mA;
350.714;0.179199;61.4;308;-4.48914e-05;10 mA;
350.914;0.178101;61.6;309;-4.45862e-05;10 mA;
351.114;0.177063;61.8;310;-4.47998e-05;10 mA;
351.314;0.175934;62;311;-4.47693e-05;10 mA;
351.514;0.174835;62.2;312;-4.47998e-05;10 mA;
351.714;0.173737;62.4;313;-4.47998e-05;10 mA;
351.914;0.172638;62.6;314;-4.47388e-05;10 mA;
352.114;0.1716;62.8;315;-4.46167e-05;10 mA;
352.314;0.170471;63;316;-4.46777e-05;10 mA;
352.514;0.169373;63.2;317;-4.46777e-05;10 mA;
352.714;0.168274;63.4;318;-4.48914e-05;10 mA;
352.914;0.167175;63.6;319;-4.44946e-05;10 mA;
353.114;0.166046;63.8;320;-4.50134e-05;10 mA;
353.314;0.165009;64;321;-4.45862e-05;10 mA;
353.514;0.16391;64.2;322;-4.46777e-05;10 mA;
353.714;0.162781;64.4;323;-4.48608e-05;10 mA;
353.914;0.161713;64.6;324;-4.45251e-05;10 mA;
354.114;0.160553;64.8;325;-4.49829e-05;10 mA;
354.314;0.159454;65;326;-4.46472e-05;10 mA;
354.514;0.158356;65.2;327;-4.46777e-05;10 mA;
354.714;0.157227;65.4;328;-4.46472e-05;10 mA;
354.914;0.156097;65.6;329;-4.50745e-05;10 mA;
355.114;0.154999;65.8;330;-4.47998e-05;10 mA;
355.314;0.153839;66;331;-4.47693e-05;10 mA;
355.514;0.152771;66.2;332;-4.47693e-05;10 mA;
355.714;0.151642;66.4;333;-4.54102e-05;10 mA;
355.914;0.150543;66.6;334;-4.47388e-05;10 mA;
356.114;0.149414;66.8;335;-4.5166e-05;10 mA;
356.314;0.148315;67;336;-4.49829e-05;10 mA;
356.514;0.147125;67.2;337;-4.52271e-05;10 mA;
356.714;0.146027;67.4;338;-4.45557e-05;10 mA;
356.914;0.144897;67.6;339;-4.46167e-05;10 mA;
357.114;0.143799;67.8;340;-4.46472e-05;10 mA;
357.314;0.142639;68;341;-4.49219e-05;10 mA;
357.514;0.141541;68.2;342;-4.49219e-05;10 mA;
357.714;0.140442;68.4;343;-4.49829e-05;10 mA;
357.914;0.139252;68.6;344;-4.48303e-05;10 mA;
358.114;0.138153;68.8;345;-4.49219e-05;10 mA;
358.314;0.137024;69;346;-4.48608e-05;10 mA;
358.514;0.135864;69.2;347;-4.47693e-05;10 mA;
358.714;0.134735;69.4;348;-4.48303e-05;10 mA;
358.914;0.133606;69.6;349;-4.45251e-05;10 mA;
359.114;0.132446;69.8;350;-4.49524e-05;10 mA;
359.314;0.131317;70;351;-4.49829e-05;10 mA;
359.514;0.130157;70.2;352;-4.48914e-05;10 mA;
359.714;0.129059;70.4;353;-4.5105e-05;10 mA;
359.914;0.127838;70.6;354;-4.47083e-05;10 mA;
360.114;0.126709;70.8;355;-4.49524e-05;10 mA;
360.314;0.12558;71;356;-4.46167e-05;10 mA;
360.514;0.124481;71.2;357;-4.47693e-05;10 mA;
360.714;0.123291;71.4;358;-4.45862e-05;10 mA;
360.914;0.122101;71.6;359;-4.47998e-05;10 mA;
361.114;0.120972;71.8;360;-4.47998e-05;10 mA;
361.314;0.119781;72;361;-4.5105e-05;10 mA;
361.514;0.118622;72.2;362;-4.48608e-05;10 mA;
361.714;0.117462;72.4;363;-4.47693e-05;10 mA;
361.914;0.116333;72.6;364;-4.48608e-05;10 mA;
362.114;0.115143;72.8;365;-4.47388e-05;10 mA;
362.314;0.114014;73;366;-4.48608e-05;10 mA;
362.514;0.112854;73.2;367;-4.44641e-05;10 mA;
362.714;0.111664;73.4;368;-4.46167e-05;10 mA;
362.914;0.110474;73.6;369;-4.47693e-05;10 mA;
363.114;0.109314;73.8;370;-4.49829e-05;10 mA;
363.314;0.108093;74;371;-4.49219e-05;10 mA;
363.514;0.106964;74.2;372;-4.48608e-05;10 mA;
363.714;0.105774;74.4;373;-4.50745e-05;10 mA;
363.914;0.104614;74.6;374;-4.43726e-05;10 mA;
364.114;0.103394;74.8;375;-4.49219e-05;10 mA;
364.314;0.102234;75;376;-4.50439e-05;10 mA;
364.514;0.101044;75.2;377;-4.49219e-05;10 mA;
364.714;0.099823;75.4;378;-4.47083e-05;10 mA;
364.914;0.0986328;75.6;379;-4.52271e-05;10 mA;
365.114;0.0974426;75.8;380;-4.48914e-05;10 mA;
365.314;0.096283;76;381;-4.44946e-05;10 mA;
365.514;0.0951233;76.2;382;-4.47083e-05;10 mA;
365.714;0.0939026;76.4;383;-4.49219e-05;10 mA;
365.914;0.0927734;76.6;384;-4.47998e-05;10 mA;
366.114;0.0915527;76.8;385;-4.50134e-05;10 mA;
366.314;0.0903625;77;386;-4.47998e-05;10 mA;
366.514;0.0891724;77.2;387;-4.50134e-05;10 mA;
366.714;0.0879822;77.4;388;-4.47693e-05;10 mA;
366.914;0.086792;77.6;389;-4.47998e-05;10 mA;
367.114;0.0856018;77.8;390;-4.46167e-05;10 mA;
367.314;0.0844421;78;391;-4.46777e-05;10 mA;
367.514;0.0832214;78.2;392;-4.45251e-05;10 mA;
367.714;0.0820618;78.4;393;-4.48914e-05;10 mA;
367.914;0.0808411;78.6;394;-4.48303e-05;10 mA;
368.114;0.0796509;78.8;395;-4.48608e-05;10 mA;
368.314;0.0784912;79;396;-4.47998e-05;10 mA;
368.514;0.077301;79.2;397;-4.47693e-05;10 mA;
368.714;0.0761108;79.4;398;-4.48914e-05;10 mA;
368.914;0.0749512;79.6;399;-4.46777e-05;10 mA;
369.114;0.073761;79.8;400;-4.46777e-05;10 mA;
369.314;0.0726013;80;401;-4.48608e-05;10 mA;
369.514;0.0714111;80.2;402;-4.47693e-05;10 mA;
369.714;0.0702515;80.4;403;-4.49829e-05;10 mA;
369.914;0.0690002;80.6;404;-4.48608e-05;10 mA;
370.114;0.0678711;80.8;405;-4.49219e-05;10 mA;
370.314;0.0666504;81;406;-4.47998e-05;10 mA;
370.514;0.0654297;81.2;407;-4.48914e-05;10 mA;
370.714;0.0642395;81.4;408;-4.48303e-05;10 mA;
370.914;0.0630188;81.6;409;-4.50134e-05;10 mA;
371.114;0.0618591;81.8;410;-4.45557e-05;10 mA;
371.314;0.0606384;82;411;-4.47998e-05;10 mA;
371.514;0.0594177;82.2;412;-4.47693e-05;10 mA;
371.714;0.0582275;82.4;413;-4.45251e-05;10 mA;
371.914;0.0570374;82.6;414;-4.48914e-05;10 mA;
372.114;0.0558472;82.8;415;-4.49524e-05;10 mA;
372.314;0.0546265;83;416;-4.47693e-05;10 mA;
372.514;0.0534058;83.2;417;-4.50439e-05;10 mA;
372.714;0.0522461;83.4;418;-4.45557e-05;10 mA;
372.914;0.0510559;83.6;419;-4.47083e-05;10 mA;
373.114;0.0498352;83.8;420;-4.49524e-05;10 mA;
373.314;0.048642;84;421;-4.47388e-05;10 mA;
373.514;0.0474579;84.2;422;-4.48608e-05;10 mA;
373.714;0.046286;84.4;423;-4.50134e-05;10 mA;
373.914;0.0450928;84.6;424;-4.47998e-05;10 mA;
374.114;0.0439148;84.8;425;-4.48303e-05;10 mA;
374.314;0.0427155;85;426;-4.48608e-05;10 mA;
374.514;0.0414978;85.2;427;-4.48608e-05;10 mA;
374.714;0.0403107;85.4;428;-4.48303e-05;10 mA;
374.914;0.0391388;85.6;429;-4.47388e-05;10 mA;
375.114;0.0379211;85.8;430;-4.48608e-05;10 mA;
375.314;0.0367615;86;431;-4.50745e-05;10 mA;
375.514;0.0355621;86.2;432;-4.47083e-05;10 mA;
375.714;0.0343903;86.4;433;-4.50134e-05;10 mA;
375.914;0.0331726;86.6;434;-4.48914e-05;10 mA;
376.114;0.0320038;86.8;435;-4.50745e-05;10 mA;
376.314;0.0307953;87;436;-4.49829e-05;10 mA;
376.514;0.0295837;87.2;437;-4.46777e-05;10 mA;
376.714;0.028418;87.4;438;-4.48608e-05;10 mA;
376.914;0.0272278;87.6;439;-4.50134e-05;10 mA;
377.114;0.0260193;87.8;440;-4.49829e-05;10 mA;
377.314;0.0248871;88;441;-4.50439e-05;10 mA;
377.514;0.0236877;88.2;442;-4.49829e-05;10 mA;
377.714;0.0225128;88.4;443;-4.50745e-05;10 mA;
377.914;0.0213318;88.6;444;-4.48608e-05;10 mA;
378.114;0.0201599;88.8;445;-4.50134e-05;10 mA;
378.314;0.018988;89;446;-4.49524e-05;10 mA;
378.514;0.0178375;89.2;447;-4.47693e-05;10 mA;
378.714;0.0166748;89.4;448;-4.49219e-05;10 mA;
378.914;0.0154877;89.6;449;-4.49524e-05;10 mA;
379.114;0.0143097;89.8;450;-4.50745e-05;10 mA;
379.314;0.0131165;90;451;-4.47388e-05;10 mA;
379.514;0.0119659;90.2;452;-4.47083e-05;10 mA;
379.714;0.0107697;90.4;453;-4.48914e-05;10 mA;
379.914;0.00958862;90.6;454;-4.49219e-05;10 mA;
380.114;0.00845337;90.8;455;-4.49219e-05;10 mA;
380.314;0.0072937;91;456;-4.47693e-05;10 mA;
380.514;0.00610657;91.2;457;-4.48303e-05;10 mA;
380.714;0.00496216;91.4;458;-4.50745e-05;10 mA;
380.914;0.0038147;91.6;459;-4.50439e-05;10 mA;
381.114;0.00267334;91.8;460;-4.46777e-05;10 mA;
381.314;0.00149536;92;461;-4.46167e-05;10 mA;
381.514;0.00032959;92.2;462;-4.4342e-05;10 mA;
381.714;-0.000799561;92.4;463;-4.48608e-05;10 mA;
381.914;-0.00195923;92.6;464;-4.47998e-05;10 mA;
382.114;-0.00311279;92.8;465;-4.49829e-05;10 mA;
382.314;-0.00431213;93;466;-4.47693e-05;10 mA;
382.514;-0.00546875;93.2;467;-4.45862e-05;10 mA;
382.714;-0.00666199;93.4;468;-4.46167e-05;10 mA;
382.914;-0.00784912;93.6;469;-4.48608e-05;10 mA;
383.114;-0.00900879;93.8;470;-4.50134e-05;10 mA;
383.314;-0.0101257;94;471;-4.47998e-05;10 mA;
383.514;-0.0112854;94.2;472;-4.47693e-05;10 mA;
383.714;-0.0124664;94.4;473;-4.45251e-05;10 mA;
383.914;-0.0136749;94.6;474;-4.49219e-05;10 mA;
384.114;-0.0148376;94.8;475;-4.49524e-05;10 mA;
384.314;-0.0159851;95;476;-4.49524e-05;10 mA;
384.514;-0.0171265;95.2;477;-4.48608e-05;10 mA;
384.714;-0.01828;95.4;478;-4.49524e-05;10 mA;
384.914;-0.0194397;95.6;479;-4.48914e-05;10 mA;
385.114;-0.0205505;95.8;480;-4.48914e-05;10 mA;
385.314;-0.0216492;96;481;-4.47998e-05;10 mA;
385.514;-0.0227692;96.2;482;-4.48608e-05;10 mA;
385.714;-0.0238831;96.4;483;-4.49219e-05;10 mA;
385.914;-0.0250366;96.6;484;-4.46472e-05;10 mA;
386.114;-0.0261963;96.8;485;-4.46472e-05;10 mA;
386.314;-0.0273224;97;486;-4.50745e-05;10 mA;
386.514;-0.0284668;97.2;487;-4.50439e-05;10 mA;
386.714;-0.0295685;97.4;488;-4.49524e-05;10 mA;
386.914;-0.0306946;97.6;489;-4.49829e-05;10 mA;
387.114;-0.0317932;97.8;490;-4.47693e-05;10 mA;
387.314;-0.0329224;98;491;-4.51355e-05;10 mA;
387.514;-0.0339935;98.2;492;-4.50745e-05;10 mA;
387.714;-0.03508;98.4;493;-4.48914e-05;10 mA;
387.914;-0.0361908;98.6;494;-4.47998e-05;10 mA;
388.114;-0.0372375;98.8;495;-4.50134e-05;10 mA;
388.314;-0.0383423;99;496;-4.5105e-05;10 mA;
388.514;-0.0394104;99.2;497;-4.49829e-05;10 mA;
388.714;-0.0404999;99.4;498;-4.48608e-05;10 mA;
388.914;-0.041568;99.6;499;-4.47998e-05;10 mA;
389.114;-0.0426392;99.8;500;-4.49219e-05;10 mA;
389.314;-0.0437286;100;501;-4.47693e-05;10 mA;
389.514;-0.0447601;100.2;502;-4.48303e-05;10 mA;
389.714;-0.0458374;100.4;503;-4.50134e-05;10 mA;
389.914;-0.0468628;100.6;504;-4.46472e-05;10 mA;
390.114;-0.0479095;100.8;505;-4.50439e-05;10 mA;
390.314;-0.0489441;101;506;-4.48303e-05;10 mA;
390.514;-0.0500183;101.2;507;-4.46472e-05;10 mA;
390.714;-0.0510864;101.4;508;-4.46777e-05;10 mA;
390.914;-0.052124;101.6;509;-4.47693e-05;10 mA;
391.114;-0.0531921;101.8;510;-4.47388e-05;10 mA;
391.314;-0.0542603;102;511;-4.50439e-05;10 mA;
391.514;-0.0552979;102.2;512;-4.48914e-05;10 mA;
391.714;-0.0563354;102.4;513;-4.48608e-05;10 mA;
391.914;-0.057373;102.6;514;-4.48608e-05;10 mA;
392.114;-0.0584106;102.8;515;-4.49219e-05;10 mA;
392.314;-0.0594482;103;516;-4.48608e-05;10 mA;
392.514;-0.0605164;103.2;517;-4.51965e-05;10 mA;
392.714;-0.0615234;103.4;518;-4.47083e-05;10 mA;
392.914;-0.0625305;103.6;519;-4.51355e-05;10 mA;
393.114;-0.0635681;103.8;520;-4.50134e-05;10 mA;
393.314;-0.0645752;104;521;-4.49219e-05;10 mA;
393.514;-0.0655823;104.2;522;-4.49829e-05;10 mA;
393.714;-0.0665588;104.4;523;-4.47083e-05;10 mA;
393.914;-0.0675659;104.6;524;-4.50439e-05;10 mA;
394.114;-0.0685425;104.8;525;-4.48608e-05;10 mA;
394.314;-0.0695496;105;526;-4.49219e-05;10 mA;
394.514;-0.0705261;105.2;527;-4.50134e-05;10 mA;
394.714;-0.0715027;105.4;528;-4.49524e-05;10 mA;
394.914;-0.0724792;105.6;529;-4.5105e-05;10 mA;
395.114;-0.0734558;105.8;530;-4.47388e-05;10 mA;
395.314;-0.0744324;106;531;-4.49219e-05;10 mA;
395.514;-0.0753479;106.2;532;-4.46777e-05;10 mA;
395.714;-0.0763245;106.4;533;-4.50745e-05;10 mA;
395.914;-0.0772705;106.6;534;-4.49524e-05;10 mA;
396.114;-0.0782166;106.8;535;-4.47998e-05;10 mA;
396.314;-0.0791016;107;536;-4.48914e-05;10 mA;
396.514;-0.0800476;107.2;537;-4.47693e-05;10 mA;
396.714;-0.0808716;107.4;538;-4.50439e-05;10 mA;
396.914;-0.0818176;107.6;539;-4.48914e-05;10 mA;
397.114;-0.0827332;107.8;540;-4.52576e-05;10 mA;
397.314;-0.0836182;108;541;-4.50134e-05;10 mA;
397.514;-0.0845032;108.2;542;-4.50134e-05;10 mA;
397.714;-0.0853577;108.4;543;-4.5105e-05;10 mA;
397.914;-0.0862732;108.6;544;-4.48608e-05;10 mA;
398.114;-0.0871887;108.8;545;-4.45862e-05;10 mA;
398.314;-0.0880432;109;546;-4.49829e-05;10 mA;
398.514;-0.0888977;109.2;547;-4.49219e-05;10 mA;
398.714;-0.0897522;109.4;548;-4.48608e-05;10 mA;
398.914;-0.0905762;109.6;549;-4.48608e-05;10 mA;
399.114;-0.0914307;109.8;550;-4.50134e-05;10 mA;
399.314;-0.0922546;110;551;-4.48914e-05;10 mA;
399.514;-0.0930786;110.2;552;-4.50134e-05;10 mA;
399.714;-0.0938721;110.4;553;-4.45862e-05;10 mA;
399.914;-0.094696;110.6;554;-4.51965e-05;10 mA;
400.114;-0.09552;110.8;555;-4.48303e-05;10 mA;
400.314;-0.096283;111;556;-4.48608e-05;10 mA;
400.514;-0.0971375;111.2;557;-4.49219e-05;10 mA;
400.714;-0.0978699;111.4;558;-4.47388e-05;10 mA;
400.914;-0.0986328;111.6;559;-4.48914e-05;10 mA;
401.114;-0.0994568;111.8;560;-4.51355e-05;10 mA;
401.314;-0.10025;112;561;-4.49524e-05;10 mA;WE(1).Potential < -0,1 V
401.514;-0.101013;112.2;562;-4.49829e-05;10 mA;WE(1).Potential < -0,1 V
401.714;-0.101776;112.4;563;-4.48608e-05;10 mA;WE(1).Potential < -0,1 V
401.914;-0.102539;112.6;564;-4.5105e-05;10 mA;WE(1).Potential < -0,1 V