File: CD-Mxene3-1Ag-DESCARGA.txt
Time (s);WE(1).Potential (V);Corrected time (s);Index;WE(1).Current (A);Current range
406.037;0.83374;0;1;-4.39453e-06;10 mA
406.637;0.82428;0.6;4;-4.69971e-06;10 mA
407.237;0.818176;1.2;7;-4.60815e-06;10 mA
407.837;0.813293;1.8;10;-4.48608e-06;10 mA
408.437;0.809021;2.4;13;-4.54712e-06;10 mA
409.037;0.805054;3;16;-4.3335e-06;10 mA
409.637;0.801392;3.6;19;-4.82178e-06;10 mA
410.237;0.798035;4.2;22;-4.82178e-06;10 mA
410.837;0.794678;4.8;25;-4.42505e-06;10 mA
411.437;0.791626;5.4;28;-4.76074e-06;10 mA
412.037;0.788879;6;31;-4.42505e-06;10 mA
412.637;0.785828;6.6;34;-4.54712e-06;10 mA
413.237;0.783081;7.2;37;-4.82178e-06;10 mA
413.837;0.78064;7.8;40;-4.5166e-06;10 mA
414.437;0.777893;8.4;43;-4.66919e-06;10 mA
415.037;0.775452;9;46;-4.54712e-06;10 mA
415.637;0.77301;9.6;49;-4.88281e-06;10 mA
416.237;0.770569;10.2;52;-4.66919e-06;10 mA
416.837;0.768127;10.8;55;-4.45557e-06;10 mA
417.437;0.765991;11.4;58;-4.48608e-06;10 mA
418.037;0.76355;12;61;-4.5166e-06;10 mA
418.637;0.761414;12.6;64;-4.24194e-06;10 mA
419.237;0.759277;13.2;67;-4.76074e-06;10 mA
419.837;0.757141;13.8;70;-4.73022e-06;10 mA
420.437;0.755005;14.4;73;-4.66919e-06;10 mA
421.037;0.752869;15;76;-4.82178e-06;10 mA
421.637;0.750732;15.6;79;-4.66919e-06;10 mA
422.237;0.748596;16.2;82;-4.3335e-06;10 mA
422.837;0.746765;16.8;85;-4.88281e-06;10 mA
423.437;0.744629;17.4;88;-4.63867e-06;10 mA
424.037;0.742798;18;91;-4.48608e-06;10 mA
424.637;0.740662;18.6;94;-4.69971e-06;10 mA
425.237;0.738831;19.2;97;-4.69971e-06;10 mA
425.837;0.737;19.8;100;-4.69971e-06;10 mA
426.437;0.735168;20.4;103;-4.57764e-06;10 mA
427.037;0.733032;21;106;-4.57764e-06;10 mA
427.637;0.731506;21.6;109;-4.30298e-06;10 mA
428.237;0.729675;22.2;112;-4.76074e-06;10 mA
428.837;0.727844;22.8;115;-4.63867e-06;10 mA
429.437;0.726013;23.4;118;-4.76074e-06;10 mA
430.037;0.724182;24;121;-4.63867e-06;10 mA
430.637;0.722351;24.6;124;-4.60815e-06;10 mA
431.237;0.720825;25.2;127;-4.54712e-06;10 mA
431.837;0.718994;25.8;130;-4.76074e-06;10 mA
432.437;0.717163;26.4;133;-4.5166e-06;10 mA
433.037;0.715332;27;136;-4.76074e-06;10 mA
433.637;0.713806;27.6;139;-5.21851e-06;10 mA
434.237;0.711975;28.2;142;-4.63867e-06;10 mA
434.837;0.710449;28.8;145;-4.69971e-06;10 mA
435.437;0.708618;29.4;148;-5.0354e-06;10 mA
436.037;0.707092;30;151;-4.88281e-06;10 mA
436.637;0.705261;30.6;154;-4.76074e-06;10 mA
437.237;0.703735;31.2;157;-4.88281e-06;10 mA
437.837;0.701904;31.8;160;-4.63867e-06;10 mA
438.437;0.700378;32.4;163;-4.88281e-06;10 mA
439.037;0.698547;33;166;-5.06592e-06;10 mA
439.637;0.697021;33.6;169;-4.73022e-06;10 mA
440.237;0.695496;34.2;172;-4.73022e-06;10 mA
440.837;0.693665;34.8;175;-4.69971e-06;10 mA
441.437;0.692139;35.4;178;-5.06592e-06;10 mA
442.037;0.690613;36;181;-5.00488e-06;10 mA
442.637;0.689087;36.6;184;-4.76074e-06;10 mA
443.237;0.687561;37.2;187;-4.57764e-06;10 mA
443.837;0.686035;37.8;190;-5.00488e-06;10 mA
444.437;0.684509;38.4;193;-4.69971e-06;10 mA
445.037;0.682983;39;196;-4.82178e-06;10 mA
445.637;0.681458;39.6;199;-5.09644e-06;10 mA
446.237;0.679932;40.2;202;-4.88281e-06;10 mA
446.837;0.678406;40.8;205;-4.97437e-06;10 mA
447.437;0.67688;41.4;208;-4.94385e-06;10 mA
448.037;0.675354;42;211;-5.0354e-06;10 mA
448.637;0.673828;42.6;214;-4.97437e-06;10 mA
449.237;0.672302;43.2;217;-4.94385e-06;10 mA
449.837;0.671082;43.8;220;-4.66919e-06;10 mA
450.437;0.669556;44.4;223;-4.57764e-06;10 mA
451.037;0.66803;45;226;-4.76074e-06;10 mA
451.637;0.666809;45.6;229;-4.73022e-06;10 mA
452.237;0.665283;46.2;232;-4.82178e-06;10 mA
452.837;0.663757;46.8;235;-4.79126e-06;10 mA
453.437;0.662231;47.4;238;-4.94385e-06;10 mA
454.037;0.661011;48;241;-4.82178e-06;10 mA
454.637;0.659485;48.6;244;-4.88281e-06;10 mA
455.237;0.657959;49.2;247;-4.66919e-06;10 mA
455.837;0.656738;49.8;250;-4.66919e-06;10 mA
456.437;0.655212;50.4;253;-4.48608e-06;10 mA
457.037;0.653992;51;256;-4.97437e-06;10 mA
457.637;0.652466;51.6;259;-4.73022e-06;10 mA
458.237;0.651245;52.2;262;-4.76074e-06;10 mA
458.837;0.649719;52.8;265;-4.42505e-06;10 mA
459.437;0.648499;53.4;268;-5.12695e-06;10 mA
460.037;0.647278;54;271;-4.94385e-06;10 mA
460.637;0.645752;54.6;274;-4.69971e-06;10 mA
461.237;0.644531;55.2;277;-4.69971e-06;10 mA
461.837;0.643005;55.8;280;-5.12695e-06;10 mA
462.437;0.641785;56.4;283;-4.69971e-06;10 mA
463.037;0.640564;57;286;-4.73022e-06;10 mA
463.637;0.639038;57.6;289;-4.57764e-06;10 mA
464.237;0.637817;58.2;292;-5.0354e-06;10 mA
464.837;0.636597;58.8;295;-5.18799e-06;10 mA
465.437;0.635071;59.4;298;-4.82178e-06;10 mA
466.037;0.63385;60;301;-4.63867e-06;10 mA
466.637;0.632629;60.6;304;-5.06592e-06;10 mA
467.237;0.631409;61.2;307;-4.88281e-06;10 mA
467.837;0.629883;61.8;310;-4.97437e-06;10 mA
468.437;0.628662;62.4;313;-5.12695e-06;10 mA
469.037;0.627441;63;316;-5.06592e-06;10 mA
469.637;0.625916;63.6;319;-5.21851e-06;10 mA
470.237;0.624695;64.2;322;-5.15747e-06;10 mA
470.837;0.623474;64.8;325;-5.0354e-06;10 mA
471.437;0.621948;65.4;328;-5.21851e-06;10 mA
472.037;0.620728;66;331;-5.06592e-06;10 mA
472.637;0.619507;66.6;334;-5.06592e-06;10 mA
473.237;0.618286;67.2;337;-4.97437e-06;10 mA
473.837;0.617065;67.8;340;-5.0354e-06;10 mA
474.437;0.615845;68.4;343;-4.79126e-06;10 mA
475.037;0.614624;69;346;-4.94385e-06;10 mA
475.637;0.613403;69.6;349;-5.06592e-06;10 mA
476.237;0.612183;70.2;352;-4.63867e-06;10 mA
476.837;0.610962;70.8;355;-5.0354e-06;10 mA
477.437;0.610046;71.4;358;-4.82178e-06;10 mA
478.037;0.608826;72;361;-4.88281e-06;10 mA
478.637;0.607605;72.6;364;-5.37109e-06;10 mA
479.237;0.606384;73.2;367;-5.00488e-06;10 mA
479.837;0.605164;73.8;370;-4.94385e-06;10 mA
480.437;0.603943;74.4;373;-5.06592e-06;10 mA
481.037;0.603027;75;376;-4.94385e-06;10 mA
481.637;0.601807;75.6;379;-5.12695e-06;10 mA
482.237;0.600891;76.2;382;-5.21851e-06;10 mA
482.837;0.59967;76.8;385;-4.82178e-06;10 mA
483.437;0.59845;77.4;388;-4.69971e-06;10 mA
484.037;0.597229;78;391;-5.0354e-06;10 mA
484.637;0.596313;78.6;394;-5.00488e-06;10 mA
485.237;0.595093;79.2;397;-4.94385e-06;10 mA
485.837;0.593872;79.8;400;-5.15747e-06;10 mA
486.437;0.592957;80.4;403;-4.97437e-06;10 mA
487.037;0.591736;81;406;-5.21851e-06;10 mA
487.637;0.590515;81.6;409;-5.00488e-06;10 mA
488.237;0.5896;82.2;412;-5.12695e-06;10 mA
488.837;0.588379;82.8;415;-5.09644e-06;10 mA
489.437;0.587158;83.4;418;-4.88281e-06;10 mA
490.037;0.586243;84;421;-4.66919e-06;10 mA
490.637;0.585022;84.6;424;-4.91333e-06;10 mA
491.237;0.584106;85.2;427;-5.24902e-06;10 mA
491.837;0.582886;85.8;430;-5.12695e-06;10 mA
492.437;0.581665;86.4;433;-5.12695e-06;10 mA
493.037;0.58075;87;436;-4.91333e-06;10 mA
493.637;0.579834;87.6;439;-5.31006e-06;10 mA
494.237;0.578613;88.2;442;-5.24902e-06;10 mA
494.837;0.577698;88.8;445;-4.82178e-06;10 mA
495.437;0.576477;89.4;448;-5.15747e-06;10 mA
496.037;0.575562;90;451;-5.06592e-06;10 mA
496.637;0.574341;90.6;454;-5.43213e-06;10 mA
497.237;0.573425;91.2;457;-4.88281e-06;10 mA
497.837;0.57251;91.8;460;-5.37109e-06;10 mA
498.437;0.571289;92.4;463;-5.06592e-06;10 mA
499.037;0.570374;93;466;-5.21851e-06;10 mA
499.637;0.569153;93.6;469;-5.27954e-06;10 mA
500.237;0.568237;94.2;472;-4.88281e-06;10 mA
500.837;0.567322;94.8;475;-5.34058e-06;10 mA
501.437;0.566406;95.4;478;-5.0354e-06;10 mA
502.037;0.565186;96;481;-5.09644e-06;10 mA
502.637;0.56427;96.6;484;-5.27954e-06;10 mA
503.237;0.563354;97.2;487;-4.85229e-06;10 mA
503.837;0.562134;97.8;490;-5.00488e-06;10 mA
504.437;0.561218;98.4;493;-5.15747e-06;10 mA
505.037;0.560303;99;496;-5.18799e-06;10 mA
505.637;0.559387;99.6;499;-4.97437e-06;10 mA
506.237;0.558472;100.2;502;-5.00488e-06;10 mA
506.837;0.557556;100.8;505;-4.91333e-06;10 mA
507.437;0.556335;101.4;508;-4.85229e-06;10 mA
508.037;0.555725;102;511;-4.94385e-06;10 mA
508.637;0.554504;102.6;514;-4.82178e-06;10 mA
509.237;0.553589;103.2;517;-5.00488e-06;10 mA
509.837;0.552673;103.8;520;-4.82178e-06;10 mA
510.437;0.551758;104.4;523;-4.88281e-06;10 mA
511.037;0.550842;105;526;-5.31006e-06;10 mA
511.637;0.549927;105.6;529;-5.12695e-06;10 mA
512.237;0.549011;106.2;532;-4.85229e-06;10 mA
512.837;0.548096;106.8;535;-4.94385e-06;10 mA
513.437;0.54718;107.4;538;-4.73022e-06;10 mA
514.037;0.546265;108;541;-4.82178e-06;10 mA
514.637;0.545349;108.6;544;-4.91333e-06;10 mA
515.237;0.544434;109.2;547;-4.97437e-06;10 mA
515.837;0.543518;109.8;550;-5.12695e-06;10 mA
516.437;0.542603;110.4;553;-5.06592e-06;10 mA
517.037;0.541687;111;556;-5.21851e-06;10 mA
517.637;0.540771;111.6;559;-4.88281e-06;10 mA
518.237;0.539551;112.2;562;-4.91333e-06;10 mA
518.837;0.53894;112.8;565;-4.97437e-06;10 mA
519.437;0.538025;113.4;568;-5.27954e-06;10 mA
520.037;0.537109;114;571;-5.0354e-06;10 mA
520.637;0.536194;114.6;574;-5.34058e-06;10 mA
521.237;0.535278;115.2;577;-4.79126e-06;10 mA
521.837;0.534363;115.8;580;-4.88281e-06;10 mA
522.437;0.533752;116.4;583;-4.94385e-06;10 mA
523.037;0.532532;117;586;-5.00488e-06;10 mA
523.637;0.531616;117.6;589;-4.91333e-06;10 mA
524.237;0.531006;118.2;592;-5.0354e-06;10 mA
524.837;0.53009;118.8;595;-5.27954e-06;10 mA
525.437;0.529175;119.4;598;-5.0354e-06;10 mA
526.037;0.528259;120;601;-5.12695e-06;10 mA
526.637;0.527344;120.6;604;-5.12695e-06;10 mA
527.237;0.526428;121.2;607;-5.24902e-06;10 mA
527.837;0.525513;121.8;610;-4.82178e-06;10 mA
528.437;0.524597;122.4;613;-5.09644e-06;10 mA
529.037;0.523682;123;616;-4.94385e-06;10 mA
529.637;0.523071;123.6;619;-4.97437e-06;10 mA
530.237;0.522156;124.2;622;-5.09644e-06;10 mA
530.837;0.52124;124.8;625;-5.09644e-06;10 mA
531.437;0.520325;125.4;628;-4.94385e-06;10 mA
532.037;0.519714;126;631;-5.12695e-06;10 mA
532.637;0.518799;126.6;634;-4.85229e-06;10 mA
533.237;0.517883;127.2;637;-4.97437e-06;10 mA
533.837;0.517273;127.8;640;-5.12695e-06;10 mA
534.437;0.516357;128.4;643;-4.82178e-06;10 mA
535.037;0.515747;129;646;-5.06592e-06;10 mA
535.637;0.514832;129.6;649;-4.85229e-06;10 mA
536.237;0.514221;130.2;652;-5.18799e-06;10 mA
536.837;0.513306;130.8;655;-5.12695e-06;10 mA
537.437;0.51239;131.4;658;-5.0354e-06;10 mA
538.037;0.511475;132;661;-4.73022e-06;10 mA
538.637;0.510864;132.6;664;-4.94385e-06;10 mA
539.237;0.509949;133.2;667;-4.79126e-06;10 mA
539.837;0.509033;133.8;670;-4.97437e-06;10 mA
540.437;0.508423;134.4;673;-4.76074e-06;10 mA
541.037;0.507507;135;676;-5.0354e-06;10 mA
541.637;0.506897;135.6;679;-5.18799e-06;10 mA
542.237;0.505981;136.2;682;-4.94385e-06;10 mA
542.837;0.505371;136.8;685;-4.97437e-06;10 mA
543.437;0.504456;137.4;688;-4.94385e-06;10 mA
544.037;0.503845;138;691;-5.15747e-06;10 mA
544.637;0.50293;138.6;694;-5.12695e-06;10 mA
545.237;0.502319;139.2;697;-4.91333e-06;10 mA
545.837;0.501404;139.8;700;-5.0354e-06;10 mA
546.437;0.500793;140.4;703;-5.00488e-06;10 mA
547.037;0.499878;141;706;-5.12695e-06;10 mA
547.637;0.499329;141.6;709;-5.12695e-06;10 mA
548.237;0.498627;142.2;712;-4.97437e-06;10 mA
548.837;0.497925;142.8;715;-5.12695e-06;10 mA
549.437;0.497253;143.4;718;-5.0354e-06;10 mA
550.037;0.496582;144;721;-5.21851e-06;10 mA
550.637;0.49588;144.6;724;-5.21851e-06;10 mA
551.237;0.495178;145.2;727;-5.27954e-06;10 mA
551.837;0.494446;145.8;730;-5.43213e-06;10 mA
552.437;0.493713;146.4;733;-5.15747e-06;10 mA
553.037;0.493042;147;736;-4.94385e-06;10 mA
553.637;0.492371;147.6;739;-5.12695e-06;10 mA
554.237;0.491699;148.2;742;-5.37109e-06;10 mA
554.837;0.490967;148.8;745;-5.09644e-06;10 mA
555.437;0.490265;149.4;748;-5.00488e-06;10 mA
556.037;0.489594;150;751;-4.88281e-06;10 mA
556.637;0.488922;150.6;754;-4.76074e-06;10 mA
557.237;0.488159;151.2;757;-4.97437e-06;10 mA
557.837;0.487518;151.8;760;-5.43213e-06;10 mA
558.437;0.486816;152.4;763;-5.24902e-06;10 mA
559.037;0.486115;153;766;-5.43213e-06;10 mA
559.637;0.485413;153.6;769;-5.18799e-06;10 mA
560.237;0.484711;154.2;772;-4.88281e-06;10 mA
560.837;0.48407;154.8;775;-5.09644e-06;10 mA
561.437;0.483368;155.4;778;-4.91333e-06;10 mA
562.037;0.482727;156;781;-4.88281e-06;10 mA
562.637;0.482086;156.6;784;-5.21851e-06;10 mA
563.237;0.481445;157.2;787;-4.97437e-06;10 mA
563.837;0.480743;157.8;790;-4.94385e-06;10 mA
564.437;0.480133;158.4;793;-5.00488e-06;10 mA
565.037;0.479523;159;796;-4.94385e-06;10 mA
565.637;0.478821;159.6;799;-5.12695e-06;10 mA
566.237;0.478149;160.2;802;-5.21851e-06;10 mA
566.837;0.477509;160.8;805;-4.82178e-06;10 mA
567.437;0.476868;161.4;808;-5.09644e-06;10 mA
568.037;0.476227;162;811;-5.12695e-06;10 mA
568.637;0.475555;162.6;814;-5.06592e-06;10 mA
569.237;0.474884;163.2;817;-5.21851e-06;10 mA
569.837;0.474274;163.8;820;-4.88281e-06;10 mA
570.437;0.473572;164.4;823;-4.79126e-06;10 mA
571.037;0.4729;165;826;-4.85229e-06;10 mA
571.637;0.47226;165.6;829;-5.09644e-06;10 mA
572.237;0.471588;166.2;832;-4.69971e-06;10 mA
572.837;0.470917;166.8;835;-5.37109e-06;10 mA
573.437;0.470306;167.4;838;-5.00488e-06;10 mA
574.037;0.469666;168;841;-5.00488e-06;10 mA
574.637;0.468964;168.6;844;-4.76074e-06;10 mA
575.237;0.468384;169.2;847;-5.21851e-06;10 mA
575.837;0.467743;169.8;850;-4.88281e-06;10 mA
576.437;0.467133;170.4;853;-5.21851e-06;10 mA
577.037;0.466492;171;856;-5.34058e-06;10 mA
577.637;0.465851;171.6;859;-5.06592e-06;10 mA
578.237;0.46524;172.2;862;-5.12695e-06;10 mA
578.837;0.4646;172.8;865;-5.24902e-06;10 mA
579.437;0.46402;173.4;868;-5.06592e-06;10 mA
580.037;0.46344;174;871;-4.82178e-06;10 mA
580.637;0.462799;174.6;874;-5.27954e-06;10 mA
581.237;0.462189;175.2;877;-5.12695e-06;10 mA
581.837;0.461578;175.8;880;-4.97437e-06;10 mA
582.437;0.460876;176.4;883;-5.18799e-06;10 mA
583.037;0.460236;177;886;-4.73022e-06;10 mA
583.637;0.459595;177.6;889;-5.18799e-06;10 mA
584.237;0.459015;178.2;892;-4.97437e-06;10 mA
584.837;0.458344;178.8;895;-5.31006e-06;10 mA
585.437;0.457733;179.4;898;-4.66919e-06;10 mA
586.037;0.457184;180;901;-5.06592e-06;10 mA
586.637;0.456604;180.6;904;-5.27954e-06;10 mA
587.237;0.456024;181.2;907;-5.18799e-06;10 mA
587.837;0.455414;181.8;910;-5.21851e-06;10 mA
588.437;0.454773;182.4;913;-4.91333e-06;10 mA
589.037;0.454193;183;916;-5.09644e-06;10 mA
589.637;0.453644;183.6;919;-4.91333e-06;10 mA
590.237;0.453064;184.2;922;-5.18799e-06;10 mA
590.837;0.452515;184.8;925;-5.21851e-06;10 mA
591.437;0.451965;185.4;928;-5.21851e-06;10 mA
592.037;0.451385;186;931;-5.34058e-06;10 mA
592.637;0.450775;186.6;934;-5.12695e-06;10 mA
593.237;0.450195;187.2;937;-5.15747e-06;10 mA
593.837;0.449646;187.8;940;-4.88281e-06;10 mA
594.437;0.449127;188.4;943;-5.12695e-06;10 mA
595.037;0.448608;189;946;-4.73022e-06;10 mA
595.637;0.44812;189.6;949;-5.15747e-06;10 mA
596.237;0.447601;190.2;952;-4.91333e-06;10 mA
596.837;0.447021;190.8;955;-5.0354e-06;10 mA
597.437;0.446503;191.4;958;-5.27954e-06;10 mA
598.037;0.446014;192;961;-5.18799e-06;10 mA
598.637;0.445435;192.6;964;-5.18799e-06;10 mA
599.237;0.444916;193.2;967;-5.21851e-06;10 mA
599.837;0.444397;193.8;970;-4.73022e-06;10 mA
600.437;0.443848;194.4;973;-5.49316e-06;10 mA
601.037;0.443298;195;976;-5.21851e-06;10 mA
601.637;0.442688;195.6;979;-5.27954e-06;10 mA
602.237;0.442139;196.2;982;-5.06592e-06;10 mA
602.837;0.44165;196.8;985;-5.15747e-06;10 mA
603.437;0.441101;197.4;988;-5.18799e-06;10 mA
604.037;0.440613;198;991;-5.12695e-06;10 mA
604.637;0.440063;198.6;994;-5.21851e-06;10 mA
605.237;0.439545;199.2;997;-5.24902e-06;10 mA
605.837;0.439026;199.8;1000;-5.09644e-06;10 mA
606.437;0.438507;200.4;1003;-5.06592e-06;10 mA
607.037;0.438049;201;1006;-4.94385e-06;10 mA
607.637;0.437531;201.6;1009;-4.97437e-06;10 mA
608.237;0.436981;202.2;1012;-5.06592e-06;10 mA
608.837;0.436493;202.8;1015;-4.88281e-06;10 mA
609.437;0.435974;203.4;1018;-5.15747e-06;10 mA
610.037;0.435455;204;1021;-5.27954e-06;10 mA
610.637;0.434937;204.6;1024;-5.21851e-06;10 mA
611.237;0.434418;205.2;1027;-5.12695e-06;10 mA
611.837;0.433929;205.8;1030;-5.37109e-06;10 mA
612.437;0.433411;206.4;1033;-5.27954e-06;10 mA
613.037;0.432892;207;1036;-5.34058e-06;10 mA
613.637;0.432373;207.6;1039;-4.97437e-06;10 mA
614.237;0.431824;208.2;1042;-5.34058e-06;10 mA
614.837;0.431335;208.8;1045;-5.12695e-06;10 mA
615.437;0.430878;209.4;1048;-5.15747e-06;10 mA
616.037;0.43042;210;1051;-5.18799e-06;10 mA
616.637;0.429932;210.6;1054;-5.37109e-06;10 mA
617.237;0.429474;211.2;1057;-5.34058e-06;10 mA
617.837;0.428955;211.8;1060;-5.37109e-06;10 mA
618.437;0.428497;212.4;1063;-4.94385e-06;10 mA
619.037;0.427979;213;1066;-5.31006e-06;10 mA
619.637;0.42749;213.6;1069;-5.21851e-06;10 mA
620.237;0.426971;214.2;1072;-5.09644e-06;10 mA
620.837;0.426483;214.8;1075;-5.34058e-06;10 mA
621.437;0.425995;215.4;1078;-4.88281e-06;10 mA
622.037;0.425476;216;1081;-5.12695e-06;10 mA
622.637;0.425018;216.6;1084;-5.12695e-06;10 mA
623.237;0.4245;217.2;1087;-5.21851e-06;10 mA
623.837;0.424011;217.8;1090;-5.12695e-06;10 mA
624.437;0.423492;218.4;1093;-5.21851e-06;10 mA
625.037;0.423065;219;1096;-5.12695e-06;10 mA
625.637;0.422577;219.6;1099;-5.34058e-06;10 mA
626.237;0.42215;220.2;1102;-5.0354e-06;10 mA
626.837;0.421692;220.8;1105;-4.94385e-06;10 mA
627.437;0.421204;221.4;1108;-4.94385e-06;10 mA
628.037;0.420776;222;1111;-5.18799e-06;10 mA
628.637;0.420319;222.6;1114;-5.37109e-06;10 mA
629.237;0.41983;223.2;1117;-5.00488e-06;10 mA
629.837;0.419373;223.8;1120;-5.0354e-06;10 mA
630.437;0.418854;224.4;1123;-5.24902e-06;10 mA
631.037;0.418396;225;1126;-5.00488e-06;10 mA
631.637;0.417877;225.6;1129;-5.31006e-06;10 mA
632.237;0.417389;226.2;1132;-4.85229e-06;10 mA
632.837;0.416962;226.8;1135;-5.34058e-06;10 mA
633.437;0.416534;227.4;1138;-4.85229e-06;10 mA
634.037;0.416107;228;1141;-5.34058e-06;10 mA
634.637;0.415649;228.6;1144;-4.85229e-06;10 mA
635.237;0.415192;229.2;1147;-4.88281e-06;10 mA
635.837;0.414734;229.8;1150;-5.64575e-06;10 mA
636.437;0.414368;230.4;1153;-5.12695e-06;10 mA
637.037;0.413879;231;1156;-4.69971e-06;10 mA
637.637;0.413483;231.6;1159;-5.24902e-06;10 mA
638.237;0.412994;232.2;1162;-5.24902e-06;10 mA
638.837;0.412567;232.8;1165;-5.00488e-06;10 mA
639.437;0.412109;233.4;1168;-5.34058e-06;10 mA
640.037;0.411682;234;1171;-5.27954e-06;10 mA
640.637;0.411255;234.6;1174;-5.18799e-06;10 mA
641.237;0.410828;235.2;1177;-5.00488e-06;10 mA
641.837;0.4104;235.8;1180;-5.06592e-06;10 mA
642.437;0.409973;236.4;1183;-5.21851e-06;10 mA
643.037;0.409546;237;1186;-5.27954e-06;10 mA
643.637;0.409119;237.6;1189;-5.18799e-06;10 mA
644.237;0.408722;238.2;1192;-5.18799e-06;10 mA
644.837;0.408264;238.8;1195;-5.40161e-06;10 mA
645.437;0.407867;239.4;1198;-5.12695e-06;10 mA
646.037;0.40741;240;1201;-5.34058e-06;10 mA
646.637;0.406952;240.6;1204;-5.15747e-06;10 mA
647.237;0.406555;241.2;1207;-5.40161e-06;10 mA
647.837;0.406189;241.8;1210;-4.88281e-06;10 mA
648.437;0.405792;242.4;1213;-4.88281e-06;10 mA
649.037;0.405365;243;1216;-4.97437e-06;10 mA
649.637;0.404999;243.6;1219;-5.21851e-06;10 mA
650.237;0.404572;244.2;1222;-4.94385e-06;10 mA
650.837;0.404144;244.8;1225;-5.15747e-06;10 mA
651.437;0.403748;245.4;1228;-5.46265e-06;10 mA
652.037;0.40329;246;1231;-5.21851e-06;10 mA
652.637;0.402893;246.6;1234;-5.24902e-06;10 mA
653.237;0.402466;247.2;1237;-5.0354e-06;10 mA
653.837;0.4021;247.8;1240;-4.69971e-06;10 mA
654.437;0.401642;248.4;1243;-5.09644e-06;10 mA
655.037;0.401184;249;1246;-5.00488e-06;10 mA
655.637;0.400757;249.6;1249;-5.24902e-06;10 mA
656.237;0.40036;250.2;1252;-5.0354e-06;10 mA
656.837;0.399902;250.8;1255;-4.91333e-06;10 mA
657.437;0.399536;251.4;1258;-5.09644e-06;10 mA
658.037;0.399078;252;1261;-4.76074e-06;10 mA
658.637;0.398712;252.6;1264;-5.18799e-06;10 mA
659.237;0.398254;253.2;1267;-5.34058e-06;10 mA
659.837;0.397888;253.8;1270;-5.12695e-06;10 mA
660.437;0.397522;254.4;1273;-4.88281e-06;10 mA
661.037;0.397064;255;1276;-5.37109e-06;10 mA
661.637;0.396698;255.6;1279;-5.27954e-06;10 mA
662.237;0.39621;256.2;1282;-5.00488e-06;10 mA
662.837;0.395813;256.8;1285;-5.43213e-06;10 mA
663.437;0.395386;257.4;1288;-5.21851e-06;10 mA
664.037;0.394958;258;1291;-5.43213e-06;10 mA
664.637;0.394592;258.6;1294;-5.15747e-06;10 mA
665.237;0.394165;259.2;1297;-4.85229e-06;10 mA
665.837;0.393738;259.8;1300;-5.24902e-06;10 mA
666.437;0.393311;260.4;1303;-5.15747e-06;10 mA
667.037;0.392914;261;1306;-5.06592e-06;10 mA
667.637;0.392517;261.6;1309;-5.09644e-06;10 mA
668.237;0.39209;262.2;1312;-5.18799e-06;10 mA
668.837;0.391663;262.8;1315;-5.43213e-06;10 mA
669.437;0.391266;263.4;1318;-5.34058e-06;10 mA
670.037;0.390869;264;1321;-5.00488e-06;10 mA
670.637;0.390472;264.6;1324;-4.94385e-06;10 mA
671.237;0.390076;265.2;1327;-4.97437e-06;10 mA
671.837;0.389709;265.8;1330;-5.24902e-06;10 mA
672.437;0.389282;266.4;1333;-5.34058e-06;10 mA
673.037;0.388916;267;1336;-5.27954e-06;10 mA
673.637;0.38858;267.6;1339;-4.94385e-06;10 mA
674.237;0.388214;268.2;1342;-4.82178e-06;10 mA
674.837;0.387817;268.8;1345;-4.82178e-06;10 mA
675.437;0.387451;269.4;1348;-5.21851e-06;10 mA
676.037;0.387054;270;1351;-5.37109e-06;10 mA
676.637;0.386749;270.6;1354;-5.00488e-06;10 mA
677.237;0.386383;271.2;1357;-5.31006e-06;10 mA
677.837;0.385956;271.8;1360;-5.18799e-06;10 mA
678.437;0.38562;272.4;1363;-5.00488e-06;10 mA
679.037;0.385315;273;1366;-5.18799e-06;10 mA
679.637;0.384918;273.6;1369;-5.09644e-06;10 mA
680.237;0.384521;274.2;1372;-4.82178e-06;10 mA
680.837;0.384216;274.8;1375;-5.21851e-06;10 mA
681.437;0.38385;275.4;1378;-5.09644e-06;10 mA
682.037;0.383484;276;1381;-5.49316e-06;10 mA
682.637;0.383087;276.6;1384;-5.21851e-06;10 mA
683.237;0.382721;277.2;1387;-5.21851e-06;10 mA
683.837;0.382294;277.8;1390;-5.06592e-06;10 mA
684.437;0.381958;278.4;1393;-5.18799e-06;10 mA
685.037;0.381592;279;1396;-5.09644e-06;10 mA
685.637;0.381226;279.6;1399;-5.0354e-06;10 mA
686.237;0.380798;280.2;1402;-5.27954e-06;10 mA
686.837;0.380432;280.8;1405;-5.24902e-06;10 mA
687.437;0.380035;281.4;1408;-4.85229e-06;10 mA
688.037;0.3797;282;1411;-5.06592e-06;10 mA
688.637;0.379303;282.6;1414;-5.46265e-06;10 mA
689.237;0.378998;283.2;1417;-5.15747e-06;10 mA
689.837;0.378632;283.8;1420;-5.06592e-06;10 mA
690.437;0.378326;284.4;1423;-4.76074e-06;10 mA
691.037;0.37796;285;1426;-5.40161e-06;10 mA
691.637;0.377563;285.6;1429;-5.34058e-06;10 mA
692.237;0.377197;286.2;1432;-5.06592e-06;10 mA
692.837;0.376831;286.8;1435;-5.09644e-06;10 mA
693.437;0.376434;287.4;1438;-5.12695e-06;10 mA
694.037;0.376129;288;1441;-5.06592e-06;10 mA
694.637;0.375763;288.6;1444;-5.46265e-06;10 mA
695.237;0.375366;289.2;1447;-5.06592e-06;10 mA
695.837;0.375031;289.8;1450;-5.40161e-06;10 mA
696.437;0.374725;290.4;1453;-5.46265e-06;10 mA
697.037;0.37439;291;1456;-5.46265e-06;10 mA
697.637;0.373993;291.6;1459;-4.88281e-06;10 mA
698.237;0.373627;292.2;1462;-5.09644e-06;10 mA
698.837;0.373291;292.8;1465;-5.09644e-06;10 mA
699.437;0.372864;293.4;1468;-4.97437e-06;10 mA
700.037;0.372589;294;1471;-5.18799e-06;10 mA
700.637;0.372223;294.6;1474;-5.15747e-06;10 mA
701.237;0.371887;295.2;1477;-5.06592e-06;10 mA
701.837;0.371521;295.8;1480;-4.88281e-06;10 mA
702.437;0.371185;296.4;1483;-5.21851e-06;10 mA
703.037;0.37088;297;1486;-5.09644e-06;10 mA
703.637;0.370483;297.6;1489;-4.88281e-06;10 mA
704.237;0.370178;298.2;1492;-5.00488e-06;10 mA
704.837;0.369873;298.8;1495;-5.24902e-06;10 mA
705.437;0.369507;299.4;1498;-4.66919e-06;10 mA
706.037;0.369171;300;1501;-5.24902e-06;10 mA
706.637;0.368835;300.6;1504;-5.34058e-06;10 mA
707.237;0.368469;301.2;1507;-4.85229e-06;10 mA
707.837;0.368134;301.8;1510;-5.18799e-06;10 mA
708.437;0.367828;302.4;1513;-4.79126e-06;10 mA
709.037;0.367462;303;1516;-5.12695e-06;10 mA
709.637;0.367065;303.6;1519;-4.66919e-06;10 mA
710.237;0.36673;304.2;1522;-5.31006e-06;10 mA
710.837;0.366394;304.8;1525;-5.06592e-06;10 mA
711.437;0.365997;305.4;1528;-5.27954e-06;10 mA
712.037;0.365631;306;1531;-5.09644e-06;10 mA
712.637;0.365326;306.6;1534;-5.24902e-06;10 mA
713.237;0.365021;307.2;1537;-5.18799e-06;10 mA
713.837;0.364655;307.8;1540;-5.31006e-06;10 mA
714.437;0.364319;308.4;1543;-4.94385e-06;10 mA
715.037;0.364014;309;1546;-5.06592e-06;10 mA
715.637;0.363647;309.6;1549;-5.21851e-06;10 mA
716.237;0.363312;310.2;1552;-5.18799e-06;10 mA
716.837;0.363037;310.8;1555;-5.12695e-06;10 mA
717.437;0.362732;311.4;1558;-5.18799e-06;10 mA
718.037;0.362366;312;1561;-5.06592e-06;10 mA
718.637;0.36203;312.6;1564;-5.46265e-06;10 mA
719.237;0.361694;313.2;1567;-4.88281e-06;10 mA
719.837;0.361389;313.8;1570;-4.88281e-06;10 mA
720.437;0.361053;314.4;1573;-5.0354e-06;10 mA
721.037;0.360687;315;1576;-5.09644e-06;10 mA
721.637;0.360321;315.6;1579;-5.06592e-06;10 mA
722.237;0.360016;316.2;1582;-5.21851e-06;10 mA
722.837;0.35965;316.8;1585;-5.46265e-06;10 mA
723.437;0.359375;317.4;1588;-5.43213e-06;10 mA
724.037;0.359009;318;1591;-4.97437e-06;10 mA
724.637;0.358643;318.6;1594;-5.09644e-06;10 mA
725.237;0.358276;319.2;1597;-5.21851e-06;10 mA
725.837;0.357971;319.8;1600;-5.00488e-06;10 mA
726.437;0.357605;320.4;1603;-5.0354e-06;10 mA
727.037;0.357269;321;1606;-5.0354e-06;10 mA
727.637;0.356873;321.6;1609;-5.09644e-06;10 mA
728.237;0.356506;322.2;1612;-5.06592e-06;10 mA
728.837;0.356232;322.8;1615;-5.09644e-06;10 mA
729.437;0.355865;323.4;1618;-5.00488e-06;10 mA
730.037;0.355499;324;1621;-5.21851e-06;10 mA
730.637;0.355164;324.6;1624;-5.18799e-06;10 mA
731.237;0.354767;325.2;1627;-5.0354e-06;10 mA
731.837;0.354492;325.8;1630;-5.24902e-06;10 mA
732.437;0.354095;326.4;1633;-5.27954e-06;10 mA
733.037;0.353729;327;1636;-4.97437e-06;10 mA
733.637;0.353394;327.6;1639;-5.24902e-06;10 mA
734.237;0.353088;328.2;1642;-5.34058e-06;10 mA
734.837;0.352753;328.8;1645;-5.12695e-06;10 mA
735.437;0.352448;329.4;1648;-5.15747e-06;10 mA
736.037;0.352081;330;1651;-4.97437e-06;10 mA
736.637;0.351715;330.6;1654;-5.34058e-06;10 mA
737.237;0.351379;331.2;1657;-5.00488e-06;10 mA
737.837;0.351074;331.8;1660;-5.40161e-06;10 mA
738.437;0.350769;332.4;1663;-5.21851e-06;10 mA
739.037;0.350403;333;1666;-4.91333e-06;10 mA
739.637;0.349976;333.6;1669;-5.18799e-06;10 mA
740.237;0.34964;334.2;1672;-4.97437e-06;10 mA
740.837;0.349304;334.8;1675;-5.31006e-06;10 mA
741.437;0.348969;335.4;1678;-5.27954e-06;10 mA
742.037;0.348633;336;1681;-5.18799e-06;10 mA
742.637;0.348236;336.6;1684;-5.24902e-06;10 mA
743.237;0.347931;337.2;1687;-5.24902e-06;10 mA
743.837;0.347595;337.8;1690;-5.34058e-06;10 mA
744.437;0.34726;338.4;1693;-5.49316e-06;10 mA
745.037;0.346985;339;1696;-5.34058e-06;10 mA
745.637;0.346649;339.6;1699;-4.85229e-06;10 mA
746.237;0.346313;340.2;1702;-4.88281e-06;10 mA
746.837;0.345917;340.8;1705;-5.09644e-06;10 mA
747.437;0.345612;341.4;1708;-5.15747e-06;10 mA
748.037;0.345276;342;1711;-5.31006e-06;10 mA
748.637;0.344971;342.6;1714;-5.09644e-06;10 mA
749.237;0.344666;343.2;1717;-5.15747e-06;10 mA
749.837;0.34433;343.8;1720;-5.24902e-06;10 mA
750.437;0.343994;344.4;1723;-5.0354e-06;10 mA
751.037;0.343689;345;1726;-5.12695e-06;10 mA
751.637;0.343353;345.6;1729;-5.43213e-06;10 mA
752.237;0.343048;346.2;1732;-4.91333e-06;10 mA
752.837;0.342651;346.8;1735;-5.09644e-06;10 mA
753.437;0.342346;347.4;1738;-5.12695e-06;10 mA
754.037;0.34201;348;1741;-5.52368e-06;10 mA
754.637;0.341675;348.6;1744;-5.15747e-06;10 mA
755.237;0.341339;349.2;1747;-5.00488e-06;10 mA
755.837;0.341034;349.8;1750;-5.40161e-06;10 mA
756.437;0.340698;350.4;1753;-5.06592e-06;10 mA
757.037;0.340393;351;1756;-5.06592e-06;10 mA
757.637;0.340027;351.6;1759;-5.40161e-06;10 mA
758.237;0.339722;352.2;1762;-5.40161e-06;10 mA
758.837;0.339478;352.8;1765;-5.12695e-06;10 mA
759.437;0.339172;353.4;1768;-4.88281e-06;10 mA
760.037;0.338806;354;1771;-4.88281e-06;10 mA
760.637;0.338562;354.6;1774;-5.37109e-06;10 mA
761.237;0.338257;355.2;1777;-5.00488e-06;10 mA
761.837;0.337921;355.8;1780;-5.21851e-06;10 mA
762.437;0.337616;356.4;1783;-5.31006e-06;10 mA
763.037;0.337311;357;1786;-5.37109e-06;10 mA
763.637;0.337006;357.6;1789;-5.21851e-06;10 mA
764.237;0.336639;358.2;1792;-5.09644e-06;10 mA
764.837;0.336304;358.8;1795;-4.88281e-06;10 mA
765.437;0.3359375;359.4;1798;-4.94385e-06;10 mA
766.037;0.335632;360;1801;-5.24902e-06;10 mA
766.637;0.335297;360.6;1804;-4.94385e-06;10 mA
767.237;0.334961;361.2;1807;-5.43213e-06;10 mA
767.837;0.334564;361.8;1810;-5.37109e-06;10 mA
768.437;0.334198;362.4;1813;-5.09644e-06;10 mA
769.037;0.333893;363;1816;-4.88281e-06;10 mA
769.637;0.333618;363.6;1819;-5.00488e-06;10 mA
770.237;0.333221;364.2;1822;-4.94385e-06;10 mA
770.837;0.332794;364.8;1825;-5.18799e-06;10 mA
771.437;0.332458;365.4;1828;-5.15747e-06;10 mA
772.037;0.332092;366;1831;-5.09644e-06;10 mA
772.637;0.331726;366.6;1834;-5.27954e-06;10 mA
773.237;0.331421;367.2;1837;-5.18799e-06;10 mA
773.837;0.331116;367.8;1840;-5.24902e-06;10 mA
774.437;0.33078;368.4;1843;-5.43213e-06;10 mA
775.037;0.330444;369;1846;-5.40161e-06;10 mA
775.637;0.33017;369.6;1849;-5.09644e-06;10 mA
776.237;0.329803;370.2;1852;-5.06592e-06;10 mA
776.837;0.329498;370.8;1855;-5.06592e-06;10 mA
777.437;0.329163;371.4;1858;-5.18799e-06;10 mA
778.037;0.328888;372;1861;-5.27954e-06;10 mA
778.637;0.328552;372.6;1864;-4.91333e-06;10 mA
779.237;0.328217;373.2;1867;-4.97437e-06;10 mA
779.837;0.327881;373.8;1870;-4.88281e-06;10 mA
780.437;0.327637;374.4;1873;-5.21851e-06;10 mA
781.037;0.327332;375;1876;-5.34058e-06;10 mA
781.637;0.326965;375.6;1879;-5.12695e-06;10 mA
782.237;0.32666;376.2;1882;-5.0354e-06;10 mA
782.837;0.326324;376.8;1885;-5.12695e-06;10 mA
783.437;0.325989;377.4;1888;-5.31006e-06;10 mA
784.037;0.325714;378;1891;-5.21851e-06;10 mA
784.637;0.325348;378.6;1894;-5.15747e-06;10 mA
785.237;0.325043;379.2;1897;-5.06592e-06;10 mA
785.837;0.324707;379.8;1900;-4.97437e-06;10 mA
786.437;0.324341;380.4;1903;-5.06592e-06;10 mA
787.037;0.324005;381;1906;-5.21851e-06;10 mA
787.637;0.323669;381.6;1909;-5.61523e-06;10 mA
788.237;0.323364;382.2;1912;-4.94385e-06;10 mA
788.837;0.322998;382.8;1915;-4.88281e-06;10 mA
789.437;0.322632;383.4;1918;-4.88281e-06;10 mA
790.037;0.322296;384;1921;-4.79126e-06;10 mA
790.637;0.32193;384.6;1924;-5.00488e-06;10 mA
791.237;0.321655;385.2;1927;-5.27954e-06;10 mA
791.837;0.32132;385.8;1930;-5.12695e-06;10 mA
792.437;0.320984;386.4;1933;-5.06592e-06;10 mA
793.037;0.320648;387;1936;-5.21851e-06;10 mA
793.637;0.3203125;387.6;1939;-5.34058e-06;10 mA
794.237;0.319977;388.2;1942;-5.09644e-06;10 mA
794.837;0.319672;388.8;1945;-5.18799e-06;10 mA
795.437;0.319336;389.4;1948;-5.49316e-06;10 mA
796.037;0.319061;390;1951;-5.0354e-06;10 mA
796.637;0.318756;390.6;1954;-5.46265e-06;10 mA
797.237;0.31842;391.2;1957;-5.49316e-06;10 mA
797.837;0.318115;391.8;1960;-5.31006e-06;10 mA
798.437;0.31778;392.4;1963;-5.15747e-06;10 mA
799.037;0.317444;393;1966;-5.40161e-06;10 mA
799.637;0.317108;393.6;1969;-5.40161e-06;10 mA
800.237;0.316742;394.2;1972;-5.18799e-06;10 mA
800.837;0.316437;394.8;1975;-5.15747e-06;10 mA
801.437;0.316101;395.4;1978;-5.21851e-06;10 mA
802.037;0.315765;396;1981;-5.15747e-06;10 mA
802.637;0.31543;396.6;1984;-4.91333e-06;10 mA
803.237;0.315125;397.2;1987;-5.0354e-06;10 mA
803.837;0.314758;397.8;1990;-5.09644e-06;10 mA
804.437;0.314453;398.4;1993;-5.43213e-06;10 mA
805.037;0.314087;399;1996;-5.27954e-06;10 mA
805.637;0.313751;399.6;1999;-5.21851e-06;10 mA
806.237;0.313446;400.2;2002;-5.61523e-06;10 mA
806.837;0.31311;400.8;2005;-5.27954e-06;10 mA
807.437;0.312775;401.4;2008;-5.34058e-06;10 mA
808.037;0.312439;402;2011;-5.18799e-06;10 mA
808.637;0.312073;402.6;2014;-5.27954e-06;10 mA
809.237;0.311737;403.2;2017;-5.18799e-06;10 mA
809.837;0.311401;403.8;2020;-4.97437e-06;10 mA
810.437;0.311096;404.4;2023;-5.15747e-06;10 mA
811.037;0.31076;405;2026;-5.31006e-06;10 mA
811.637;0.310455;405.6;2029;-4.88281e-06;10 mA
812.237;0.31012;406.2;2032;-5.31006e-06;10 mA
812.837;0.309814;406.8;2035;-5.15747e-06;10 mA
813.437;0.309509;407.4;2038;-5.21851e-06;10 mA
814.037;0.309204;408;2041;-5.21851e-06;10 mA
814.637;0.308838;408.6;2044;-5.00488e-06;10 mA
815.237;0.308563;409.2;2047;-5.00488e-06;10 mA
815.837;0.308228;409.8;2050;-5.31006e-06;10 mA
816.437;0.307861;410.4;2053;-5.21851e-06;10 mA
817.037;0.307556;411;2056;-5.12695e-06;10 mA
817.637;0.307159;411.6;2059;-4.88281e-06;10 mA
818.237;0.306824;412.2;2062;-5.43213e-06;10 mA
818.837;0.306488;412.8;2065;-5.40161e-06;10 mA
819.437;0.306183;413.4;2068;-5.09644e-06;10 mA
820.037;0.305847;414;2071;-5.09644e-06;10 mA
820.637;0.305542;414.6;2074;-5.15747e-06;10 mA
821.237;0.305176;415.2;2077;-5.46265e-06;10 mA
821.837;0.30481;415.8;2080;-5.46265e-06;10 mA
822.437;0.304535;416.4;2083;-5.06592e-06;10 mA
823.037;0.304169;417;2086;-5.27954e-06;10 mA
823.637;0.303864;417.6;2089;-5.21851e-06;10 mA
824.237;0.303528;418.2;2092;-5.0354e-06;10 mA
824.837;0.303223;418.8;2095;-5.37109e-06;10 mA
825.437;0.302856;419.4;2098;-5.0354e-06;10 mA
826.037;0.302521;420;2101;-5.15747e-06;10 mA
826.637;0.302216;420.6;2104;-5.31006e-06;10 mA
827.237;0.30188;421.2;2107;-5.21851e-06;10 mA
827.837;0.301605;421.8;2110;-5.27954e-06;10 mA
828.437;0.30127;422.4;2113;-5.0354e-06;10 mA
829.037;0.300903;423;2116;-5.24902e-06;10 mA
829.637;0.300598;423.6;2119;-5.27954e-06;10 mA
830.237;0.300262;424.2;2122;-5.61523e-06;10 mA
830.837;0.299957;424.8;2125;-5.06592e-06;10 mA
831.437;0.299652;425.4;2128;-5.12695e-06;10 mA
832.037;0.299316;426;2131;-5.24902e-06;10 mA
832.637;0.299011;426.6;2134;-5.27954e-06;10 mA
833.237;0.298615;427.2;2137;-5.00488e-06;10 mA
833.837;0.29837;427.8;2140;-4.76074e-06;10 mA
834.437;0.298065;428.4;2143;-4.94385e-06;10 mA
835.037;0.297791;429;2146;-5.15747e-06;10 mA
835.637;0.297485;429.6;2149;-5.0354e-06;10 mA
836.237;0.297119;430.2;2152;-5.12695e-06;10 mA
836.837;0.296814;430.8;2155;-5.15747e-06;10 mA
837.437;0.296509;431.4;2158;-4.94385e-06;10 mA
838.037;0.296173;432;2161;-5.49316e-06;10 mA
838.637;0.295898;432.6;2164;-5.12695e-06;10 mA
839.237;0.295563;433.2;2167;-5.49316e-06;10 mA
839.837;0.295258;433.8;2170;-5.21851e-06;10 mA
840.437;0.294952;434.4;2173;-5.5542e-06;10 mA
841.037;0.294556;435;2176;-5.31006e-06;10 mA
841.637;0.294281;435.6;2179;-5.0354e-06;10 mA
842.237;0.294006;436.2;2182;-5.18799e-06;10 mA
842.837;0.293671;436.8;2185;-5.00488e-06;10 mA
843.437;0.293304;437.4;2188;-5.31006e-06;10 mA
844.037;0.292999;438;2191;-5.21851e-06;10 mA
844.637;0.292694;438.6;2194;-5.34058e-06;10 mA
845.237;0.292358;439.2;2197;-5.12695e-06;10 mA
845.837;0.291931;439.8;2200;-5.43213e-06;10 mA
846.437;0.291565;440.4;2203;-5.34058e-06;10 mA
847.037;0.29126;441;2206;-5.18799e-06;10 mA
847.637;0.290894;441.6;2209;-5.27954e-06;10 mA
848.237;0.290588;442.2;2212;-5.18799e-06;10 mA
848.837;0.290222;442.8;2215;-5.18799e-06;10 mA
849.437;0.289917;443.4;2218;-5.34058e-06;10 mA
850.037;0.289581;444;2221;-5.18799e-06;10 mA
850.637;0.289276;444.6;2224;-5.18799e-06;10 mA
851.237;0.289001;445.2;2227;-5.34058e-06;10 mA
851.837;0.288666;445.8;2230;-5.15747e-06;10 mA
852.437;0.288391;446.4;2233;-5.43213e-06;10 mA
853.037;0.288055;447;2236;-5.24902e-06;10 mA
853.637;0.28772;447.6;2239;-5.5542e-06;10 mA
854.237;0.287354;448.2;2242;-5.15747e-06;10 mA
854.837;0.287048;448.8;2245;-4.97437e-06;10 mA
855.437;0.286682;449.4;2248;-5.27954e-06;10 mA
856.037;0.286377;450;2251;-5.15747e-06;10 mA
856.637;0.286041;450.6;2254;-5.34058e-06;10 mA
857.237;0.285675;451.2;2257;-5.00488e-06;10 mA
857.837;0.28537;451.8;2260;-5.06592e-06;10 mA
858.437;0.284973;452.4;2263;-5.46265e-06;10 mA
859.037;0.284607;453;2266;-5.58472e-06;10 mA
859.637;0.284271;453.6;2269;-5.15747e-06;10 mA
860.237;0.283936;454.2;2272;-5.34058e-06;10 mA
860.837;0.28363;454.8;2275;-5.34058e-06;10 mA
861.437;0.283295;455.4;2278;-5.31006e-06;10 mA
862.037;0.282959;456;2281;-5.24902e-06;10 mA
862.637;0.282623;456.6;2284;-5.09644e-06;10 mA
863.237;0.282288;457.2;2287;-5.12695e-06;10 mA
863.837;0.281982;457.8;2290;-5.09644e-06;10 mA
864.437;0.281586;458.4;2293;-5.34058e-06;10 mA
865.037;0.28125;459;2296;-5.58472e-06;10 mA
865.637;0.280975;459.6;2299;-5.00488e-06;10 mA
866.237;0.280579;460.2;2302;-5.40161e-06;10 mA
866.837;0.280243;460.8;2305;-5.18799e-06;10 mA
867.437;0.279877;461.4;2308;-4.97437e-06;10 mA
868.037;0.279541;462;2311;-5.12695e-06;10 mA
868.637;0.279175;462.6;2314;-5.12695e-06;10 mA
869.237;0.27887;463.2;2317;-5.31006e-06;10 mA
869.837;0.278503;463.8;2320;-5.27954e-06;10 mA
870.437;0.278137;464.4;2323;-5.46265e-06;10 mA
871.037;0.277832;465;2326;-5.18799e-06;10 mA
871.637;0.277466;465.6;2329;-5.27954e-06;10 mA
872.237;0.27713;466.2;2332;-5.49316e-06;10 mA
872.837;0.276764;466.8;2335;-5.46265e-06;10 mA
873.437;0.276459;467.4;2338;-5.21851e-06;10 mA
874.037;0.276123;468;2341;-5.21851e-06;10 mA
874.637;0.275818;468.6;2344;-4.88281e-06;10 mA
875.237;0.275482;469.2;2347;-5.15747e-06;10 mA
875.837;0.275146;469.8;2350;-5.12695e-06;10 mA
876.437;0.274811;470.4;2353;-5.34058e-06;10 mA
877.037;0.274475;471;2356;-5.58472e-06;10 mA
877.637;0.27417;471.6;2359;-4.91333e-06;10 mA
878.237;0.273834;472.2;2362;-5.27954e-06;10 mA
878.837;0.273529;472.8;2365;-4.79126e-06;10 mA
879.437;0.273193;473.4;2368;-5.06592e-06;10 mA
880.037;0.272858;474;2371;-5.43213e-06;10 mA
880.637;0.272522;474.6;2374;-5.37109e-06;10 mA
881.237;0.272186;475.2;2377;-5.12695e-06;10 mA
881.837;0.27182;475.8;2380;-5.24902e-06;10 mA
882.437;0.271515;476.4;2383;-5.15747e-06;10 mA
883.037;0.27121;477;2386;-4.91333e-06;10 mA
883.637;0.270874;477.6;2389;-5.0354e-06;10 mA
884.237;0.270538;478.2;2392;-5.15747e-06;10 mA
884.837;0.270203;478.8;2395;-5.40161e-06;10 mA
885.437;0.269836;479.4;2398;-4.94385e-06;10 mA
886.037;0.269501;480;2401;-5.31006e-06;10 mA
886.637;0.269165;480.6;2404;-5.00488e-06;10 mA
887.237;0.268829;481.2;2407;-5.15747e-06;10 mA
887.837;0.268494;481.8;2410;-5.27954e-06;10 mA
888.437;0.268127;482.4;2413;-5.18799e-06;10 mA
889.037;0.267822;483;2416;-5.21851e-06;10 mA
889.637;0.267456;483.6;2419;-5.31006e-06;10 mA
890.237;0.26712;484.2;2422;-5.09644e-06;10 mA
890.837;0.266754;484.8;2425;-5.34058e-06;10 mA
891.437;0.266388;485.4;2428;-4.97437e-06;10 mA
892.037;0.266113;486;2431;-5.61523e-06;10 mA
892.637;0.265778;486.6;2434;-5.37109e-06;10 mA
893.237;0.265442;487.2;2437;-5.18799e-06;10 mA
893.837;0.265137;487.8;2440;-4.97437e-06;10 mA
894.437;0.264771;488.4;2443;-4.88281e-06;10 mA
895.037;0.264404;489;2446;-5.12695e-06;10 mA
895.637;0.264069;489.6;2449;-5.49316e-06;10 mA
896.237;0.263702;490.2;2452;-5.15747e-06;10 mA
896.837;0.263367;490.8;2455;-4.73022e-06;10 mA
897.437;0.263031;491.4;2458;-5.00488e-06;10 mA
898.037;0.262695;492;2461;-5.24902e-06;10 mA
898.637;0.26236;492.6;2464;-5.0354e-06;10 mA
899.237;0.261963;493.2;2467;-5.40161e-06;10 mA
899.837;0.261627;493.8;2470;-5.18799e-06;10 mA
900.437;0.261292;494.4;2473;-5.09644e-06;10 mA
901.037;0.260956;495;2476;-5.09644e-06;10 mA
901.637;0.26059;495.6;2479;-5.12695e-06;10 mA
902.237;0.260254;496.2;2482;-5.0354e-06;10 mA
902.837;0.259827;496.8;2485;-5.49316e-06;10 mA
903.437;0.259491;497.4;2488;-5.43213e-06;10 mA
904.037;0.259155;498;2491;-5.18799e-06;10 mA
904.637;0.25882;498.6;2494;-5.31006e-06;10 mA
905.237;0.258423;499.2;2497;-5.31006e-06;10 mA
905.837;0.258087;499.8;2500;-5.34058e-06;10 mA
906.437;0.257751;500.4;2503;-5.18799e-06;10 mA
907.037;0.257385;501;2506;-5.27954e-06;10 mA
907.637;0.257019;501.6;2509;-5.21851e-06;10 mA
908.237;0.256744;502.2;2512;-5.52368e-06;10 mA
908.837;0.256378;502.8;2515;-5.18799e-06;10 mA
909.437;0.255981;503.4;2518;-5.12695e-06;10 mA
910.037;0.255646;504;2521;-5.27954e-06;10 mA
910.637;0.25528;504.6;2524;-5.24902e-06;10 mA
911.237;0.254944;505.2;2527;-5.24902e-06;10 mA
911.837;0.254608;505.8;2530;-5.34058e-06;10 mA
912.437;0.254242;506.4;2533;-5.31006e-06;10 mA
913.037;0.253906;507;2536;-5.12695e-06;10 mA
913.637;0.253601;507.6;2539;-5.27954e-06;10 mA
914.237;0.253326;508.2;2542;-5.27954e-06;10 mA
914.837;0.25296;508.8;2545;-5.06592e-06;10 mA
915.437;0.252594;509.4;2548;-5.09644e-06;10 mA
916.037;0.252228;510;2551;-5.58472e-06;10 mA
916.637;0.251862;510.6;2554;-5.27954e-06;10 mA
917.237;0.251587;511.2;2557;-5.18799e-06;10 mA
917.837;0.251251;511.8;2560;-5.0354e-06;10 mA
918.437;0.250916;512.4;2563;-5.18799e-06;10 mA
919.037;0.250549;513;2566;-5.46265e-06;10 mA
919.637;0.250153;513.6;2569;-5.09644e-06;10 mA
920.237;0.249756;514.2;2572;-5.34058e-06;10 mA
920.837;0.24939;514.8;2575;-5.37109e-06;10 mA
921.437;0.249023;515.4;2578;-5.58472e-06;10 mA
922.037;0.248627;516;2581;-5.12695e-06;10 mA
922.637;0.248291;516.6;2584;-5.12695e-06;10 mA
923.237;0.247986;517.2;2587;-5.46265e-06;10 mA
923.837;0.24762;517.8;2590;-5.24902e-06;10 mA
924.437;0.247253;518.4;2593;-5.31006e-06;10 mA
925.037;0.246887;519;2596;-5.27954e-06;10 mA
925.637;0.246521;519.6;2599;-5.15747e-06;10 mA
926.237;0.246216;520.2;2602;-5.15747e-06;10 mA
926.837;0.24588;520.8;2605;-5.27954e-06;10 mA
927.437;0.245544;521.4;2608;-5.31006e-06;10 mA
928.037;0.245209;522;2611;-5.15747e-06;10 mA
928.637;0.244812;522.6;2614;-5.24902e-06;10 mA
929.237;0.244415;523.2;2617;-5.15747e-06;10 mA
929.837;0.24411;523.8;2620;-5.31006e-06;10 mA
930.437;0.243713;524.4;2623;-5.15747e-06;10 mA
931.037;0.243347;525;2626;-5.49316e-06;10 mA
931.637;0.243011;525.6;2629;-5.21851e-06;10 mA
932.237;0.242584;526.2;2632;-5.43213e-06;10 mA
932.837;0.242279;526.8;2635;-5.40161e-06;10 mA
933.437;0.241852;527.4;2638;-5.24902e-06;10 mA
934.037;0.241486;528;2641;-5.43213e-06;10 mA
934.637;0.241119;528.6;2644;-5.12695e-06;10 mA
935.237;0.240692;529.2;2647;-5.12695e-06;10 mA
935.837;0.240326;529.8;2650;-5.52368e-06;10 mA
936.437;0.239929;530.4;2653;-5.49316e-06;10 mA
937.037;0.239563;531;2656;-5.00488e-06;10 mA
937.637;0.239258;531.6;2659;-5.12695e-06;10 mA
938.237;0.238892;532.2;2662;-5.37109e-06;10 mA
938.837;0.238525;532.8;2665;-5.0354e-06;10 mA
939.437;0.238129;533.4;2668;-4.85229e-06;10 mA
940.037;0.237762;534;2671;-5.00488e-06;10 mA
940.637;0.237366;534.6;2674;-5.24902e-06;10 mA
941.237;0.23703;535.2;2677;-5.27954e-06;10 mA
941.837;0.236694;535.8;2680;-5.15747e-06;10 mA
942.437;0.236359;536.4;2683;-5.09644e-06;10 mA
943.037;0.235992;537;2686;-5.12695e-06;10 mA
943.637;0.235626;537.6;2689;-5.0354e-06;10 mA
944.237;0.235291;538.2;2692;-5.24902e-06;10 mA
944.837;0.234924;538.8;2695;-5.0354e-06;10 mA
945.437;0.234528;539.4;2698;-5.37109e-06;10 mA
946.037;0.234222;540;2701;-5.09644e-06;10 mA
946.637;0.233765;540.6;2704;-5.0354e-06;10 mA
947.237;0.233368;541.2;2707;-5.46265e-06;10 mA
947.837;0.233002;541.8;2710;-5.5542e-06;10 mA
948.437;0.232697;542.4;2713;-5.24902e-06;10 mA
949.037;0.232361;543;2716;-5.06592e-06;10 mA
949.637;0.231964;543.6;2719;-5.49316e-06;10 mA
950.237;0.231598;544.2;2722;-5.09644e-06;10 mA
950.837;0.231262;544.8;2725;-5.00488e-06;10 mA
951.437;0.230896;545.4;2728;-5.43213e-06;10 mA
952.037;0.230499;546;2731;-5.24902e-06;10 mA
952.637;0.230133;546.6;2734;-5.34058e-06;10 mA
953.237;0.229675;547.2;2737;-5.24902e-06;10 mA
953.837;0.229309;547.8;2740;-5.34058e-06;10 mA
954.437;0.228912;548.4;2743;-5.34058e-06;10 mA
955.037;0.228485;549;2746;-5.06592e-06;10 mA
955.637;0.228058;549.6;2749;-5.24902e-06;10 mA
956.237;0.227722;550.2;2752;-5.31006e-06;10 mA
956.837;0.227325;550.8;2755;-5.24902e-06;10 mA
957.437;0.226898;551.4;2758;-5.06592e-06;10 mA
958.037;0.2265625;552;2761;-5.18799e-06;10 mA
958.637;0.226257;552.6;2764;-5.21851e-06;10 mA
959.237;0.225891;553.2;2767;-5.15747e-06;10 mA
959.837;0.225555;553.8;2770;-5.15747e-06;10 mA
960.437;0.22522;554.4;2773;-5.37109e-06;10 mA
961.037;0.224762;555;2776;-5.15747e-06;10 mA
961.637;0.224426;555.6;2779;-5.46265e-06;10 mA
962.237;0.224091;556.2;2782;-5.15747e-06;10 mA
962.837;0.223694;556.8;2785;-5.40161e-06;10 mA
963.437;0.223389;557.4;2788;-5.24902e-06;10 mA
964.037;0.223022;558;2791;-5.12695e-06;10 mA
964.637;0.222656;558.6;2794;-4.94385e-06;10 mA
965.237;0.22226;559.2;2797;-5.24902e-06;10 mA
965.837;0.221893;559.8;2800;-5.31006e-06;10 mA
966.437;0.221497;560.4;2803;-5.12695e-06;10 mA
967.037;0.2211;561;2806;-5.34058e-06;10 mA
967.637;0.220673;561.6;2809;-5.49316e-06;10 mA
968.237;0.220367;562.2;2812;-5.31006e-06;10 mA
968.837;0.219971;562.8;2815;-4.94385e-06;10 mA
969.437;0.219635;563.4;2818;-5.21851e-06;10 mA
970.037;0.219238;564;2821;-5.34058e-06;10 mA
970.637;0.218903;564.6;2824;-5.31006e-06;10 mA
971.237;0.218597;565.2;2827;-5.15747e-06;10 mA
971.837;0.218231;565.8;2830;-5.09644e-06;10 mA
972.437;0.217834;566.4;2833;-5.18799e-06;10 mA
973.037;0.217438;567;2836;-5.00488e-06;10 mA
973.637;0.217041;567.6;2839;-5.43213e-06;10 mA
974.237;0.216675;568.2;2842;-5.61523e-06;10 mA
974.837;0.216339;568.8;2845;-5.09644e-06;10 mA
975.437;0.215912;569.4;2848;-5.18799e-06;10 mA
976.037;0.215546;570;2851;-5.37109e-06;10 mA
976.637;0.215179;570.6;2854;-5.24902e-06;10 mA
977.237;0.214844;571.2;2857;-5.0354e-06;10 mA
977.837;0.214417;571.8;2860;-5.40161e-06;10 mA
978.437;0.21405;572.4;2863;-5.37109e-06;10 mA
979.037;0.213654;573;2866;-5.24902e-06;10 mA
979.637;0.213318;573.6;2869;-5.31006e-06;10 mA
980.237;0.212982;574.2;2872;-5.43213e-06;10 mA
980.837;0.212646;574.8;2875;-5.58472e-06;10 mA
981.437;0.212311;575.4;2878;-5.21851e-06;10 mA
982.037;0.211975;576;2881;-5.12695e-06;10 mA
982.637;0.211548;576.6;2884;-5.43213e-06;10 mA
983.237;0.211182;577.2;2887;-5.34058e-06;10 mA
983.837;0.210785;577.8;2890;-5.24902e-06;10 mA
984.437;0.210388;578.4;2893;-5.40161e-06;10 mA
985.037;0.209961;579;2896;-5.43213e-06;10 mA
985.637;0.209625;579.6;2899;-5.37109e-06;10 mA
986.237;0.209259;580.2;2902;-5.09644e-06;10 mA
986.837;0.208893;580.8;2905;-5.40161e-06;10 mA
987.437;0.208557;581.4;2908;-5.58472e-06;10 mA
988.037;0.208191;582;2911;-5.09644e-06;10 mA
988.637;0.207825;582.6;2914;-5.27954e-06;10 mA
989.237;0.20752;583.2;2917;-5.52368e-06;10 mA
989.837;0.207153;583.8;2920;-5.40161e-06;10 mA
990.437;0.206818;584.4;2923;-5.49316e-06;10 mA
991.037;0.206421;585;2926;-5.37109e-06;10 mA
991.637;0.206055;585.6;2929;-5.46265e-06;10 mA
992.237;0.205688;586.2;2932;-4.94385e-06;10 mA
992.837;0.205261;586.8;2935;-5.27954e-06;10 mA
993.437;0.204834;587.4;2938;-5.34058e-06;10 mA
994.037;0.204437;588;2941;-5.43213e-06;10 mA
994.637;0.204102;588.6;2944;-5.18799e-06;10 mA
995.237;0.203766;589.2;2947;-4.94385e-06;10 mA
995.837;0.203339;589.8;2950;-5.21851e-06;10 mA
996.437;0.202972;590.4;2953;-5.27954e-06;10 mA
997.037;0.202667;591;2956;-5.52368e-06;10 mA
997.637;0.202271;591.6;2959;-5.24902e-06;10 mA
998.237;0.201904;592.2;2962;-5.34058e-06;10 mA
998.837;0.201538;592.8;2965;-4.94385e-06;10 mA
999.437;0.201202;593.4;2968;-5.12695e-06;10 mA
1000.04;0.200806;594;2971;-5.49316e-06;10 mA
1000.64;0.20047;594.6;2974;-5.15747e-06;10 mA
1001.24;0.200073;595.2;2977;-5.5542e-06;10 mA
1001.84;0.199677;595.8;2980;-5.27954e-06;10 mA
1002.44;0.199341;596.4;2983;-5.12695e-06;10 mA
1003.04;0.198914;597;2986;-5.21851e-06;10 mA
1003.64;0.198547;597.6;2989;-5.31006e-06;10 mA
1004.24;0.198181;598.2;2992;-5.61523e-06;10 mA
1004.84;0.197815;598.8;2995;-5.15747e-06;10 mA
1005.44;0.197479;599.4;2998;-5.34058e-06;10 mA
1005.84;0.197174;599.8;3000;-5.15747e-06;10 mA