File: CD-Mxene3-1Ag-CARGA.txt
Time (s);WE(1).Potential (V);Corrected time (s);Index;WE(1).Current (A);Current range;Cutoffs
1.8372;0.0753479;0;1;1.63879e-05;10 mA;
2.2372;0.0789795;0.4;3;1.67236e-05;10 mA;
2.6372;0.0819092;0.8;5;1.651e-05;10 mA;
3.0372;0.0843811;1.2;7;1.62659e-05;10 mA;
3.4372;0.0866699;1.6;9;1.6449e-05;10 mA;
3.8372;0.0887756;2;11;1.65405e-05;10 mA;
4.2372;0.0907898;2.4;13;1.66931e-05;10 mA;
4.6372;0.0927124;2.8;15;1.63574e-05;10 mA;
5.0372;0.0945435;3.2;17;1.63879e-05;10 mA;
5.4372;0.096283;3.6;19;1.651e-05;10 mA;
5.8372;0.0980225;4;21;1.64795e-05;10 mA;
6.2372;0.0997009;4.4;23;1.6449e-05;10 mA;
6.6372;0.101318;4.8;25;1.67236e-05;10 mA;
7.0372;0.102905;5.2;27;1.62048e-05;10 mA;
7.4372;0.104523;5.6;29;1.67236e-05;10 mA;
7.8372;0.10614;6;31;1.68762e-05;10 mA;
8.2372;0.107635;6.4;33;1.67236e-05;10 mA;
8.6372;0.109161;6.8;35;1.6571e-05;10 mA;
9.0372;0.110596;7.2;37;1.62354e-05;10 mA;
9.4372;0.11203;7.6;39;1.65405e-05;10 mA;
9.8372;0.113525;8;41;1.67847e-05;10 mA;
10.2372;0.115021;8.4;43;1.68457e-05;10 mA;
10.6372;0.116455;8.8;45;1.62659e-05;10 mA;
11.0372;0.117859;9.2;47;1.65405e-05;10 mA;
11.4372;0.119293;9.6;49;1.64795e-05;10 mA;
11.8372;0.120667;10;51;1.66321e-05;10 mA;
12.2372;0.12207;10.4;53;1.6449e-05;10 mA;
12.6372;0.123444;10.8;55;1.69067e-05;10 mA;
13.0372;0.124847;11.2;57;1.67542e-05;10 mA;
13.4372;0.126251;11.6;59;1.64795e-05;10 mA;
13.8372;0.127625;12;61;1.6449e-05;10 mA;
14.2372;0.128967;12.4;63;1.64795e-05;10 mA;
14.6372;0.130371;12.8;65;1.67847e-05;10 mA;
15.0372;0.131683;13.2;67;1.66321e-05;10 mA;
15.4372;0.133026;13.6;69;1.67236e-05;10 mA;
15.8372;0.134338;14;71;1.63879e-05;10 mA;
16.2372;0.135651;14.4;73;1.62964e-05;10 mA;
16.6372;0.136963;14.8;75;1.64795e-05;10 mA;
17.0372;0.138275;15.2;77;1.66931e-05;10 mA;
17.4372;0.139587;15.6;79;1.66321e-05;10 mA;
17.8372;0.140839;16;81;1.65405e-05;10 mA;
18.2372;0.14209;16.4;83;1.63879e-05;10 mA;
18.6372;0.143341;16.8;85;1.64185e-05;10 mA;
19.0372;0.144592;17.2;87;1.63574e-05;10 mA;
19.4372;0.145782;17.6;89;1.6571e-05;10 mA;
19.8372;0.147034;18;91;1.6449e-05;10 mA;
20.2372;0.148285;18.4;93;1.64795e-05;10 mA;
20.6372;0.149475;18.8;95;1.651e-05;10 mA;
21.0372;0.150665;19.2;97;1.62964e-05;10 mA;
21.4372;0.151886;19.6;99;1.66016e-05;10 mA;
21.8372;0.153076;20;101;1.63269e-05;10 mA;
22.2372;0.154297;20.4;103;1.6449e-05;10 mA;
22.6372;0.155518;20.8;105;1.63879e-05;10 mA;
23.0372;0.156647;21.2;107;1.66321e-05;10 mA;
23.4372;0.157806;21.6;109;1.651e-05;10 mA;
23.8372;0.158966;22;111;1.67847e-05;10 mA;
24.2372;0.160187;22.4;113;1.67542e-05;10 mA;
24.6372;0.161346;22.8;115;1.66931e-05;10 mA;
25.0372;0.162476;23.2;117;1.67847e-05;10 mA;
25.4372;0.163635;23.6;119;1.6449e-05;10 mA;
25.8372;0.164764;24;121;1.69067e-05;10 mA;
26.2372;0.165955;24.4;123;1.64795e-05;10 mA;
26.6372;0.167053;24.8;125;1.61438e-05;10 mA;
27.0372;0.168213;25.2;127;1.69067e-05;10 mA;
27.4372;0.169312;25.6;129;1.65405e-05;10 mA;
27.8372;0.170441;26;131;1.66016e-05;10 mA;
28.2372;0.17157;26.4;133;1.66931e-05;10 mA;
28.6372;0.172668;26.8;135;1.63574e-05;10 mA;
29.0372;0.173828;27.2;137;1.68762e-05;10 mA;
29.4372;0.174896;27.6;139;1.63879e-05;10 mA;
29.8372;0.176025;28;141;1.651e-05;10 mA;
30.2372;0.177124;28.4;143;1.64185e-05;10 mA;
30.6372;0.178223;28.8;145;1.64795e-05;10 mA;
31.0372;0.179291;29.2;147;1.63574e-05;10 mA;
31.4372;0.180359;29.6;149;1.65405e-05;10 mA;
31.8372;0.181458;30;151;1.6571e-05;10 mA;
32.2372;0.182526;30.4;153;1.6571e-05;10 mA;
32.6372;0.183655;30.8;155;1.63879e-05;10 mA;
33.0372;0.184723;31.2;157;1.66626e-05;10 mA;
33.4372;0.185791;31.6;159;1.65405e-05;10 mA;
33.8372;0.185944;32;161;1.651e-05;10 mA;
34.2372;0.18689;32.4;163;1.67236e-05;10 mA;
34.6372;0.187897;32.8;165;1.67236e-05;10 mA;
35.0372;0.188934;33.2;167;1.66016e-05;10 mA;
35.4372;0.189972;33.6;169;1.64185e-05;10 mA;
35.8372;0.190979;34;171;1.67236e-05;10 mA;
36.2372;0.191956;34.4;173;1.63269e-05;10 mA;
36.6372;0.193024;34.8;175;1.6449e-05;10 mA;
37.0372;0.194061;35.2;177;1.67236e-05;10 mA;
37.4372;0.195068;35.6;179;1.66626e-05;10 mA;
37.8372;0.196075;36;181;1.62964e-05;10 mA;
38.2372;0.197113;36.4;183;1.67542e-05;10 mA;
38.6372;0.19812;36.8;185;1.63574e-05;10 mA;
39.0372;0.199097;37.2;187;1.6571e-05;10 mA;
39.4372;0.200134;37.6;189;1.67236e-05;10 mA;
39.8372;0.201141;38;191;1.6571e-05;10 mA;
40.2372;0.202118;38.4;193;1.66626e-05;10 mA;
40.6372;0.203094;38.8;195;1.64795e-05;10 mA;
41.0372;0.204102;39.2;197;1.67847e-05;10 mA;
41.4372;0.205048;39.6;199;1.66931e-05;10 mA;
41.8372;0.205994;40;201;1.6449e-05;10 mA;
42.2372;0.20697;40.4;203;1.66016e-05;10 mA;
42.6372;0.207977;40.8;205;1.6571e-05;10 mA;
43.0372;0.208893;41.2;207;1.68457e-05;10 mA;
43.4372;0.209839;41.6;209;1.66321e-05;10 mA;
43.8372;0.210785;42;211;1.65405e-05;10 mA;
44.2372;0.211731;42.4;213;1.651e-05;10 mA;
44.6372;0.212677;42.8;215;1.6571e-05;10 mA;
45.0372;0.213562;43.2;217;1.66321e-05;10 mA;
45.4372;0.214539;43.6;219;1.62964e-05;10 mA;
45.8372;0.215454;44;221;1.66016e-05;10 mA;
46.2372;0.2164;44.4;223;1.64185e-05;10 mA;
46.6372;0.217407;44.8;225;1.65405e-05;10 mA;
47.0372;0.218323;45.2;227;1.68457e-05;10 mA;
47.4372;0.219238;45.6;229;1.65405e-05;10 mA;
47.8372;0.220184;46;231;1.66626e-05;10 mA;
48.2372;0.221069;46.4;233;1.64185e-05;10 mA;
48.6372;0.221954;46.8;235;1.64795e-05;10 mA;
49.0372;0.22287;47.2;237;1.66321e-05;10 mA;
49.4372;0.223785;47.6;239;1.63879e-05;10 mA;
49.8372;0.22467;48;241;1.64185e-05;10 mA;
50.2372;0.225586;48.4;243;1.63574e-05;10 mA;
50.6372;0.226501;48.8;245;1.6449e-05;10 mA;
51.0372;0.227417;49.2;247;1.66931e-05;10 mA;
51.4372;0.228363;49.6;249;1.64185e-05;10 mA;
51.8372;0.229248;50;251;1.66321e-05;10 mA;
52.2372;0.230164;50.4;253;1.65405e-05;10 mA;
52.6372;0.231079;50.8;255;1.64795e-05;10 mA;
53.0372;0.231995;51.2;257;1.67542e-05;10 mA;
53.4372;0.232849;51.6;259;1.64185e-05;10 mA;
53.8372;0.233765;52;261;1.66321e-05;10 mA;
54.2372;0.23468;52.4;263;1.6571e-05;10 mA;
54.6372;0.235626;52.8;265;1.67847e-05;10 mA;
55.0372;0.236481;53.2;267;1.66016e-05;10 mA;
55.4372;0.237366;53.6;269;1.63574e-05;10 mA;
55.8372;0.23822;54;271;1.66016e-05;10 mA;
56.2372;0.239136;54.4;273;1.6571e-05;10 mA;
56.6372;0.240021;54.8;275;1.6571e-05;10 mA;
57.0372;0.240936;55.2;277;1.63269e-05;10 mA;
57.4372;0.241821;55.6;279;1.65405e-05;10 mA;
57.8372;0.242706;56;281;1.66931e-05;10 mA;
58.2372;0.243561;56.4;283;1.65405e-05;10 mA;
58.6372;0.244415;56.8;285;1.63879e-05;10 mA;
59.0372;0.245239;57.2;287;1.66626e-05;10 mA;
59.4372;0.246124;57.6;289;1.64185e-05;10 mA;
59.8372;0.246948;58;291;1.66016e-05;10 mA;
60.2372;0.247772;58.4;293;1.6449e-05;10 mA;
60.6372;0.248688;58.8;295;1.62354e-05;10 mA;
61.0372;0.249542;59.2;297;1.6449e-05;10 mA;
61.4372;0.250366;59.6;299;1.66321e-05;10 mA;
61.8372;0.251221;60;301;1.71204e-05;10 mA;
62.2372;0.252106;60.4;303;1.67847e-05;10 mA;
62.6372;0.25293;60.8;305;1.66931e-05;10 mA;
63.0372;0.253815;61.2;307;1.66931e-05;10 mA;
63.4372;0.254608;61.6;309;1.651e-05;10 mA;
63.8372;0.255463;62;311;1.67847e-05;10 mA;
64.2372;0.256317;62.4;313;1.64795e-05;10 mA;
64.6372;0.257141;62.8;315;1.62354e-05;10 mA;
65.0372;0.257996;63.2;317;1.651e-05;10 mA;
65.4372;0.25882;63.6;319;1.651e-05;10 mA;
65.8372;0.259674;64;321;1.61438e-05;10 mA;
66.2372;0.260498;64.4;323;1.69678e-05;10 mA;
66.6372;0.261322;64.8;325;1.66626e-05;10 mA;
67.0372;0.262177;65.2;327;1.66321e-05;10 mA;
67.4372;0.263031;65.6;329;1.69373e-05;10 mA;
67.8372;0.263885;66;331;1.69067e-05;10 mA;
68.2372;0.264709;66.4;333;1.66626e-05;10 mA;
68.6372;0.265594;66.8;335;1.65405e-05;10 mA;
69.0372;0.266418;67.2;337;1.64185e-05;10 mA;
69.4372;0.267242;67.6;339;1.67236e-05;10 mA;
69.8372;0.268097;68;341;1.68457e-05;10 mA;
70.2372;0.268921;68.4;343;1.66016e-05;10 mA;
70.6372;0.269775;68.8;345;1.6571e-05;10 mA;
71.0372;0.270599;69.2;347;1.66626e-05;10 mA;
71.4372;0.271423;69.6;349;1.66016e-05;10 mA;
71.8372;0.272247;70;351;1.651e-05;10 mA;
72.2372;0.273071;70.4;353;1.66016e-05;10 mA;
72.6372;0.273895;70.8;355;1.66321e-05;10 mA;
73.0372;0.274719;71.2;357;1.651e-05;10 mA;
73.4372;0.275574;71.6;359;1.66321e-05;10 mA;
73.8372;0.276337;72;361;1.67236e-05;10 mA;
74.2372;0.27713;72.4;363;1.66321e-05;10 mA;
74.6372;0.277954;72.8;365;1.6571e-05;10 mA;
75.0372;0.278748;73.2;367;1.69373e-05;10 mA;
75.4372;0.279541;73.6;369;1.67542e-05;10 mA;
75.8372;0.280365;74;371;1.63574e-05;10 mA;
76.2372;0.281158;74.4;373;1.64795e-05;10 mA;
76.6372;0.281982;74.8;375;1.66016e-05;10 mA;
77.0372;0.282776;75.2;377;1.62964e-05;10 mA;
77.4372;0.283539;75.6;379;1.69373e-05;10 mA;
77.8372;0.284332;76;381;1.67236e-05;10 mA;
78.2372;0.285095;76.4;383;1.64795e-05;10 mA;
78.6372;0.285889;76.8;385;1.68152e-05;10 mA;
79.0372;0.286652;77.2;387;1.64795e-05;10 mA;
79.4372;0.287415;77.6;389;1.651e-05;10 mA;
79.8372;0.288177;78;391;1.651e-05;10 mA;
80.2372;0.288971;78.4;393;1.63574e-05;10 mA;
80.6372;0.289795;78.8;395;1.651e-05;10 mA;
81.0372;0.290588;79.2;397;1.68457e-05;10 mA;
81.4372;0.291382;79.6;399;1.67236e-05;10 mA;
81.8372;0.292114;80;401;1.66321e-05;10 mA;
82.2372;0.292938;80.4;403;1.65405e-05;10 mA;
82.6372;0.293732;80.8;405;1.6571e-05;10 mA;
83.0372;0.294525;81.2;407;1.67236e-05;10 mA;
83.4372;0.295288;81.6;409;1.66626e-05;10 mA;
83.8372;0.296082;82;411;1.67236e-05;10 mA;
84.2372;0.296844;82.4;413;1.67236e-05;10 mA;
84.6372;0.297577;82.8;415;1.66626e-05;10 mA;
85.0372;0.29834;83.2;417;1.64795e-05;10 mA;
85.4372;0.299103;83.6;419;1.66321e-05;10 mA;
85.8372;0.299896;84;421;1.66626e-05;10 mA;
86.2372;0.300659;84.4;423;1.63879e-05;10 mA;
86.6372;0.301422;84.8;425;1.66016e-05;10 mA;
87.0372;0.302185;85.2;427;1.66626e-05;10 mA;
87.4372;0.302948;85.6;429;1.64185e-05;10 mA;
87.8372;0.303711;86;431;1.62659e-05;10 mA;
88.2372;0.304474;86.4;433;1.6449e-05;10 mA;
88.6372;0.305237;86.8;435;1.651e-05;10 mA;
89.0372;0.305969;87.2;437;1.66626e-05;10 mA;
89.4372;0.306702;87.6;439;1.66626e-05;10 mA;
89.8372;0.307434;88;441;1.66016e-05;10 mA;
90.2372;0.308228;88.4;443;1.67847e-05;10 mA;
90.6372;0.308929;88.8;445;1.63269e-05;10 mA;
91.0372;0.309692;89.2;447;1.6571e-05;10 mA;
91.4372;0.310394;89.6;449;1.68457e-05;10 mA;
91.8372;0.311157;90;451;1.68457e-05;10 mA;
92.2372;0.31189;90.4;453;1.66016e-05;10 mA;
92.6372;0.312714;90.8;455;1.64185e-05;10 mA;
93.0372;0.313416;91.2;457;1.64795e-05;10 mA;
93.4372;0.314148;91.6;459;1.66626e-05;10 mA;
93.8372;0.31488;92;461;1.66931e-05;10 mA;
94.2372;0.315582;92.4;463;1.66626e-05;10 mA;
94.6372;0.316315;92.8;465;1.63574e-05;10 mA;
95.0372;0.317078;93.2;467;1.67542e-05;10 mA;
95.4372;0.31781;93.6;469;1.6571e-05;10 mA;
95.8372;0.318512;94;471;1.66626e-05;10 mA;
96.2372;0.319214;94.4;473;1.64185e-05;10 mA;
96.6372;0.320007;94.8;475;1.6449e-05;10 mA;
97.0372;0.320648;95.2;477;1.67236e-05;10 mA;
97.4372;0.32135;95.6;479;1.68152e-05;10 mA;
97.8372;0.322113;96;481;1.66016e-05;10 mA;
98.2372;0.322845;96.4;483;1.68152e-05;10 mA;
98.6372;0.323547;96.8;485;1.64185e-05;10 mA;
99.0372;0.32428;97.2;487;1.66626e-05;10 mA;
99.4372;0.324982;97.6;489;1.67236e-05;10 mA;
99.8372;0.325714;98;491;1.66626e-05;10 mA;
100.237;0.326416;98.4;493;1.66016e-05;10 mA;
100.637;0.327057;98.8;495;1.66016e-05;10 mA;
101.037;0.327728;99.2;497;1.67847e-05;10 mA;
101.437;0.32843;99.6;499;1.66321e-05;10 mA;
101.837;0.329102;100;501;1.64185e-05;10 mA;
102.237;0.329803;100.4;503;1.62964e-05;10 mA;
102.637;0.330505;100.8;505;1.66931e-05;10 mA;
103.037;0.331238;101.2;507;1.66016e-05;10 mA;
103.437;0.33194;101.6;509;1.68762e-05;10 mA;
103.837;0.332642;102;511;1.65405e-05;10 mA;
104.237;0.333344;102.4;513;1.64185e-05;10 mA;
104.637;0.334045;102.8;515;1.64795e-05;10 mA;
105.037;0.334717;103.2;517;1.65405e-05;10 mA;
105.437;0.335419;103.6;519;1.63879e-05;10 mA;
105.837;0.336121;104;521;1.6449e-05;10 mA;
106.237;0.336761;104.4;523;1.65405e-05;10 mA;
106.637;0.337433;104.8;525;1.68457e-05;10 mA;
107.037;0.338104;105.2;527;1.67542e-05;10 mA;
107.437;0.338776;105.6;529;1.6571e-05;10 mA;
107.837;0.339478;106;531;1.69373e-05;10 mA;
108.237;0.340149;106.4;533;1.64185e-05;10 mA;
108.637;0.340851;106.8;535;1.66016e-05;10 mA;
109.037;0.341553;107.2;537;1.6449e-05;10 mA;
109.437;0.342194;107.6;539;1.68152e-05;10 mA;
109.837;0.342865;108;541;1.66931e-05;10 mA;
110.237;0.343536;108.4;543;1.66321e-05;10 mA;
110.637;0.344208;108.8;545;1.68457e-05;10 mA;
111.037;0.344879;109.2;547;1.64795e-05;10 mA;
111.437;0.345551;109.6;549;1.64185e-05;10 mA;
111.837;0.346222;110;551;1.68762e-05;10 mA;
112.237;0.346954;110.4;553;1.67847e-05;10 mA;
112.637;0.347626;110.8;555;1.62354e-05;10 mA;
113.037;0.348328;111.2;557;1.6449e-05;10 mA;
113.437;0.348999;111.6;559;1.67236e-05;10 mA;
113.837;0.34967;112;561;1.66931e-05;10 mA;
114.237;0.350281;112.4;563;1.65405e-05;10 mA;
114.637;0.350983;112.8;565;1.66626e-05;10 mA;
115.037;0.351685;113.2;567;1.64795e-05;10 mA;
115.437;0.352325;113.6;569;1.66626e-05;10 mA;
115.837;0.353027;114;571;1.66931e-05;10 mA;
116.237;0.353699;114.4;573;1.63269e-05;10 mA;
116.637;0.35434;114.8;575;1.69678e-05;10 mA;
117.037;0.355042;115.2;577;1.69373e-05;10 mA;
117.437;0.355682;115.6;579;1.67542e-05;10 mA;
117.837;0.356384;116;581;1.67847e-05;10 mA;
118.237;0.357056;116.4;583;1.651e-05;10 mA;
118.637;0.357819;116.8;585;1.66321e-05;10 mA;
119.037;0.358521;117.2;587;1.65405e-05;10 mA;
119.437;0.359222;117.6;589;1.6571e-05;10 mA;
119.837;0.359863;118;591;1.66016e-05;10 mA;
120.237;0.360504;118.4;593;1.64185e-05;10 mA;
120.637;0.361145;118.8;595;1.65405e-05;10 mA;
121.037;0.361816;119.2;597;1.64795e-05;10 mA;
121.437;0.362488;119.6;599;1.67847e-05;10 mA;
121.837;0.363159;120;601;1.66016e-05;10 mA;
122.237;0.3638;120.4;603;1.67542e-05;10 mA;
122.637;0.364471;120.8;605;1.62964e-05;10 mA;
123.037;0.365143;121.2;607;1.62964e-05;10 mA;
123.437;0.365814;121.6;609;1.67542e-05;10 mA;
123.837;0.366455;122;611;1.66626e-05;10 mA;
124.237;0.367126;122.4;613;1.62354e-05;10 mA;
124.637;0.367798;122.8;615;1.6449e-05;10 mA;
125.037;0.368408;123.2;617;1.68457e-05;10 mA;
125.437;0.369141;123.6;619;1.67236e-05;10 mA;
125.837;0.369781;124;621;1.64185e-05;10 mA;
126.237;0.370422;124.4;623;1.68152e-05;10 mA;
126.637;0.371094;124.8;625;1.6571e-05;10 mA;
127.037;0.371765;125.2;627;1.6449e-05;10 mA;
127.437;0.372406;125.6;629;1.66931e-05;10 mA;
127.837;0.373047;126;631;1.68762e-05;10 mA;
128.237;0.373718;126.4;633;1.67236e-05;10 mA;
128.637;0.37439;126.8;635;1.63269e-05;10 mA;
129.037;0.375031;127.2;637;1.65405e-05;10 mA;
129.437;0.375702;127.6;639;1.67542e-05;10 mA;
129.837;0.376373;128;641;1.66321e-05;10 mA;
130.237;0.377045;128.4;643;1.65405e-05;10 mA;
130.637;0.377716;128.8;645;1.67542e-05;10 mA;
131.037;0.378357;129.2;647;1.66931e-05;10 mA;
131.437;0.379059;129.6;649;1.63269e-05;10 mA;
131.837;0.379761;130;651;1.68762e-05;10 mA;
132.237;0.380402;130.4;653;1.71204e-05;10 mA;
132.637;0.381042;130.8;655;1.67236e-05;10 mA;
133.037;0.381714;131.2;657;1.62964e-05;10 mA;
133.437;0.382385;131.6;659;1.66321e-05;10 mA;
133.837;0.383057;132;661;1.6571e-05;10 mA;
134.237;0.383759;132.4;663;1.67542e-05;10 mA;
134.637;0.38443;132.8;665;1.63269e-05;10 mA;
135.037;0.385101;133.2;667;1.64795e-05;10 mA;
135.437;0.385681;133.6;669;1.67236e-05;10 mA;
135.837;0.386383;134;671;1.66321e-05;10 mA;
136.237;0.387054;134.4;673;1.67236e-05;10 mA;
136.637;0.387726;134.8;675;1.66931e-05;10 mA;
137.037;0.388367;135.2;677;1.68152e-05;10 mA;
137.437;0.389038;135.6;679;1.68457e-05;10 mA;
137.837;0.38974;136;681;1.6449e-05;10 mA;
138.237;0.390442;136.4;683;1.65405e-05;10 mA;
138.637;0.391083;136.8;685;1.67847e-05;10 mA;
139.037;0.391754;137.2;687;1.66931e-05;10 mA;
139.437;0.392426;137.6;689;1.651e-05;10 mA;
139.837;0.393097;138;691;1.62354e-05;10 mA;
140.237;0.393768;138.4;693;1.65405e-05;10 mA;
140.637;0.39447;138.8;695;1.66626e-05;10 mA;
141.037;0.395142;139.2;697;1.651e-05;10 mA;
141.437;0.395844;139.6;699;1.67236e-05;10 mA;
141.837;0.396515;140;701;1.62964e-05;10 mA;
142.237;0.397156;140.4;703;1.651e-05;10 mA;
142.637;0.397827;140.8;705;1.63879e-05;10 mA;
143.037;0.398499;141.2;707;1.69678e-05;10 mA;
143.437;0.399231;141.6;709;1.68152e-05;10 mA;
143.837;0.399841;142;711;1.66931e-05;10 mA;
144.237;0.400543;142.4;713;1.64185e-05;10 mA;
144.637;0.401276;142.8;715;1.6449e-05;10 mA;
145.037;0.401978;143.2;717;1.6449e-05;10 mA;
145.437;0.402649;143.6;719;1.66321e-05;10 mA;
145.837;0.403381;144;721;1.651e-05;10 mA;
146.237;0.404083;144.4;723;1.63269e-05;10 mA;
146.637;0.404755;144.8;725;1.62964e-05;10 mA;
147.037;0.405487;145.2;727;1.6571e-05;10 mA;
147.437;0.406158;145.6;729;1.63269e-05;10 mA;
147.837;0.40683;146;731;1.66321e-05;10 mA;
148.237;0.407562;146.4;733;1.64795e-05;10 mA;
148.637;0.408264;146.8;735;1.6449e-05;10 mA;
149.037;0.408966;147.2;737;1.64795e-05;10 mA;
149.437;0.409668;147.6;739;1.651e-05;10 mA;
149.837;0.4104;148;741;1.64185e-05;10 mA;
150.237;0.411133;148.4;743;1.68457e-05;10 mA;
150.637;0.411804;148.8;745;1.67542e-05;10 mA;
151.037;0.412537;149.2;747;1.66626e-05;10 mA;
151.437;0.413239;149.6;749;1.67236e-05;10 mA;
151.837;0.413971;150;751;1.69373e-05;10 mA;
152.237;0.414703;150.4;753;1.63269e-05;10 mA;
152.637;0.415375;150.8;755;1.651e-05;10 mA;
153.037;0.416107;151.2;757;1.67236e-05;10 mA;
153.437;0.416809;151.6;759;1.6571e-05;10 mA;
153.837;0.417572;152;761;1.67236e-05;10 mA;
154.237;0.418243;152.4;763;1.66626e-05;10 mA;
154.637;0.418976;152.8;765;1.67236e-05;10 mA;
155.037;0.419678;153.2;767;1.67236e-05;10 mA;
155.437;0.42038;153.6;769;1.65405e-05;10 mA;
155.837;0.421082;154;771;1.67847e-05;10 mA;
156.237;0.421783;154.4;773;1.66626e-05;10 mA;
156.637;0.422516;154.8;775;1.67542e-05;10 mA;
157.037;0.423248;155.2;777;1.67542e-05;10 mA;
157.437;0.42392;155.6;779;1.68152e-05;10 mA;
157.837;0.424683;156;781;1.67542e-05;10 mA;
158.237;0.425385;156.4;783;1.6571e-05;10 mA;
158.637;0.426147;156.8;785;1.63269e-05;10 mA;
159.037;0.42688;157.2;787;1.66321e-05;10 mA;
159.437;0.427612;157.6;789;1.67847e-05;10 mA;
159.837;0.428406;158;791;1.6449e-05;10 mA;
160.237;0.429047;158.4;793;1.66321e-05;10 mA;
160.637;0.429779;158.8;795;1.6571e-05;10 mA;
161.037;0.430511;159.2;797;1.69373e-05;10 mA;
161.437;0.431305;159.6;799;1.66016e-05;10 mA;
161.837;0.432037;160;801;1.70288e-05;10 mA;
162.237;0.43277;160.4;803;1.66931e-05;10 mA;
162.637;0.433472;160.8;805;1.67847e-05;10 mA;
163.037;0.434174;161.2;807;1.63269e-05;10 mA;
163.437;0.434906;161.6;809;1.64185e-05;10 mA;
163.837;0.435699;162;811;1.64795e-05;10 mA;
164.237;0.436462;162.4;813;1.67236e-05;10 mA;
164.637;0.437256;162.8;815;1.67847e-05;10 mA;
165.037;0.438019;163.2;817;1.64185e-05;10 mA;
165.437;0.438751;163.6;819;1.651e-05;10 mA;
165.837;0.439514;164;821;1.69678e-05;10 mA;
166.237;0.440247;164.4;823;1.67847e-05;10 mA;
166.637;0.44104;164.8;825;1.67542e-05;10 mA;
167.037;0.441803;165.2;827;1.64795e-05;10 mA;
167.437;0.442535;165.6;829;1.68762e-05;10 mA;
167.837;0.443329;166;831;1.66626e-05;10 mA;
168.237;0.444092;166.4;833;1.62964e-05;10 mA;
168.637;0.444885;166.8;835;1.67236e-05;10 mA;
169.037;0.445618;167.2;837;1.67847e-05;10 mA;
169.437;0.446381;167.6;839;1.68152e-05;10 mA;
169.837;0.447174;168;841;1.66016e-05;10 mA;
170.237;0.447906;168.4;843;1.63574e-05;10 mA;
170.637;0.4487;168.8;845;1.66321e-05;10 mA;
171.037;0.449463;169.2;847;1.63269e-05;10 mA;
171.437;0.450226;169.6;849;1.68762e-05;10 mA;
171.837;0.450958;170;851;1.68457e-05;10 mA;
172.237;0.451721;170.4;853;1.67236e-05;10 mA;
172.637;0.452423;170.8;855;1.62964e-05;10 mA;
173.037;0.453186;171.2;857;1.68152e-05;10 mA;
173.437;0.453979;171.6;859;1.66931e-05;10 mA;
173.837;0.454712;172;861;1.67236e-05;10 mA;
174.237;0.455475;172.4;863;1.69373e-05;10 mA;
174.637;0.456268;172.8;865;1.69067e-05;10 mA;
175.037;0.457062;173.2;867;1.67847e-05;10 mA;
175.437;0.457855;173.6;869;1.66931e-05;10 mA;
175.837;0.458649;174;871;1.68152e-05;10 mA;
176.237;0.459442;174.4;873;1.70593e-05;10 mA;
176.637;0.460236;174.8;875;1.69678e-05;10 mA;
177.037;0.46106;175.2;877;1.71204e-05;10 mA;
177.437;0.461823;175.6;879;1.66626e-05;10 mA;
177.837;0.462616;176;881;1.67236e-05;10 mA;
178.237;0.463409;176.4;883;1.65405e-05;10 mA;
178.637;0.464233;176.8;885;1.6571e-05;10 mA;
179.037;0.464966;177.2;887;1.69983e-05;10 mA;
179.437;0.46579;177.6;889;1.64185e-05;10 mA;
179.837;0.466583;178;891;1.67847e-05;10 mA;
180.237;0.467377;178.4;893;1.66321e-05;10 mA;
180.637;0.46814;178.8;895;1.67847e-05;10 mA;
181.037;0.468933;179.2;897;1.67542e-05;10 mA;
181.437;0.469727;179.6;899;1.63879e-05;10 mA;
181.837;0.47052;180;901;1.66321e-05;10 mA;
182.237;0.471344;180.4;903;1.65405e-05;10 mA;
182.637;0.472107;180.8;905;1.65405e-05;10 mA;
183.037;0.4729;181.2;907;1.66321e-05;10 mA;
183.437;0.473694;181.6;909;1.66931e-05;10 mA;
183.837;0.474487;182;911;1.66321e-05;10 mA;
184.237;0.475342;182.4;913;1.62964e-05;10 mA;
184.637;0.476166;182.8;915;1.69373e-05;10 mA;
185.037;0.476959;183.2;917;1.66626e-05;10 mA;
185.437;0.477753;183.6;919;1.67236e-05;10 mA;
185.837;0.478546;184;921;1.66321e-05;10 mA;
186.237;0.47937;184.4;923;1.66626e-05;10 mA;
186.637;0.480164;184.8;925;1.68762e-05;10 mA;
187.037;0.480957;185.2;927;1.6571e-05;10 mA;
187.437;0.481781;185.6;929;1.651e-05;10 mA;
187.837;0.482605;186;931;1.66016e-05;10 mA;
188.237;0.483398;186.4;933;1.6449e-05;10 mA;
188.637;0.484161;186.8;935;1.66626e-05;10 mA;
189.037;0.484955;187.2;937;1.63269e-05;10 mA;
189.437;0.485748;187.6;939;1.68457e-05;10 mA;
189.837;0.486572;188;941;1.651e-05;10 mA;
190.237;0.487366;188.4;943;1.6571e-05;10 mA;
190.637;0.488098;188.8;945;1.68762e-05;10 mA;
191.037;0.488892;189.2;947;1.62964e-05;10 mA;
191.437;0.489746;189.6;949;1.69678e-05;10 mA;
191.837;0.49057;190;951;1.65405e-05;10 mA;
192.237;0.491364;190.4;953;1.64795e-05;10 mA;
192.637;0.4921875;190.8;955;1.67542e-05;10 mA;
193.037;0.492981;191.2;957;1.66626e-05;10 mA;
193.437;0.493805;191.6;959;1.66321e-05;10 mA;
193.837;0.49469;192;961;1.67542e-05;10 mA;
194.237;0.495544;192.4;963;1.6571e-05;10 mA;
194.637;0.496429;192.8;965;1.61438e-05;10 mA;
195.037;0.497223;193.2;967;1.69983e-05;10 mA;
195.437;0.498047;193.6;969;1.651e-05;10 mA;
195.837;0.498871;194;971;1.66321e-05;10 mA;
196.237;0.499634;194.4;973;1.6449e-05;10 mA;
196.637;0.500183;194.8;975;1.651e-05;10 mA;
197.037;0.501099;195.2;977;1.66016e-05;10 mA;
197.437;0.502014;195.6;979;1.69678e-05;10 mA;
197.837;0.50293;196;981;1.68762e-05;10 mA;
198.237;0.50354;196.4;983;1.67236e-05;10 mA;
198.637;0.504456;196.8;985;1.68457e-05;10 mA;
199.037;0.505066;197.2;987;1.66931e-05;10 mA;
199.437;0.505981;197.6;989;1.67847e-05;10 mA;
199.837;0.506897;198;991;1.63879e-05;10 mA;
200.237;0.5078125;198.4;993;1.6449e-05;10 mA;
200.637;0.508423;198.8;995;1.68762e-05;10 mA;
201.037;0.509338;199.2;997;1.64795e-05;10 mA;
201.437;0.510254;199.6;999;1.66626e-05;10 mA;
201.837;0.510864;200;1001;1.67236e-05;10 mA;
202.237;0.51178;200.4;1003;1.66016e-05;10 mA;
202.637;0.512695;200.8;1005;1.66321e-05;10 mA;
203.037;0.513306;201.2;1007;1.68152e-05;10 mA;
203.437;0.514221;201.6;1009;1.66931e-05;10 mA;
203.837;0.515137;202;1011;1.67236e-05;10 mA;
204.237;0.515747;202.4;1013;1.66626e-05;10 mA;
204.637;0.516663;202.8;1015;1.66321e-05;10 mA;
205.037;0.517578;203.2;1017;1.67542e-05;10 mA;
205.437;0.518188;203.6;1019;1.68152e-05;10 mA;
205.837;0.519104;204;1021;1.65405e-05;10 mA;
206.237;0.52002;204.4;1023;1.66321e-05;10 mA;
206.637;0.52063;204.8;1025;1.66626e-05;10 mA;
207.037;0.521545;205.2;1027;1.6571e-05;10 mA;
207.437;0.522461;205.6;1029;1.67847e-05;10 mA;
207.837;0.523376;206;1031;1.65405e-05;10 mA;
208.237;0.524292;206.4;1033;1.67847e-05;10 mA;
208.637;0.524902;206.8;1035;1.6571e-05;10 mA;
209.037;0.525818;207.2;1037;1.66016e-05;10 mA;
209.437;0.526428;207.6;1039;1.66016e-05;10 mA;
209.837;0.527344;208;1041;1.64795e-05;10 mA;
210.237;0.528259;208.4;1043;1.64185e-05;10 mA;
210.637;0.529175;208.8;1045;1.67236e-05;10 mA;
211.037;0.529785;209.2;1047;1.66626e-05;10 mA;
211.437;0.530701;209.6;1049;1.68762e-05;10 mA;
211.837;0.531616;210;1051;1.66626e-05;10 mA;
212.237;0.532532;210.4;1053;1.67542e-05;10 mA;
212.637;0.533142;210.8;1055;1.66931e-05;10 mA;
213.037;0.534058;211.2;1057;1.64795e-05;10 mA;
213.437;0.534973;211.6;1059;1.65405e-05;10 mA;
213.837;0.535889;212;1061;1.70593e-05;10 mA;
214.237;0.536499;212.4;1063;1.66931e-05;10 mA;
214.637;0.537415;212.8;1065;1.68152e-05;10 mA;
215.037;0.53833;213.2;1067;1.67847e-05;10 mA;
215.437;0.539246;213.6;1069;1.67542e-05;10 mA;
215.837;0.539856;214;1071;1.69067e-05;10 mA;
216.237;0.540771;214.4;1073;1.66321e-05;10 mA;
216.637;0.541687;214.8;1075;1.6449e-05;10 mA;
217.037;0.542297;215.2;1077;1.6449e-05;10 mA;
217.437;0.543213;215.6;1079;1.69678e-05;10 mA;
217.837;0.544128;216;1081;1.67847e-05;10 mA;
218.237;0.545044;216.4;1083;1.68762e-05;10 mA;
218.637;0.545959;216.8;1085;1.69373e-05;10 mA;
219.037;0.546875;217.2;1087;1.69067e-05;10 mA;
219.437;0.547485;217.6;1089;1.68762e-05;10 mA;
219.837;0.548401;218;1091;1.69678e-05;10 mA;
220.237;0.549316;218.4;1093;1.66626e-05;10 mA;
220.637;0.550232;218.8;1095;1.65405e-05;10 mA;
221.037;0.551147;219.2;1097;1.70288e-05;10 mA;
221.437;0.551758;219.6;1099;1.69678e-05;10 mA;
221.837;0.552673;220;1101;1.71814e-05;10 mA;
222.237;0.553589;220.4;1103;1.64795e-05;10 mA;
222.637;0.554504;220.8;1105;1.66626e-05;10 mA;
223.037;0.55542;221.2;1107;1.65405e-05;10 mA;
223.437;0.55603;221.6;1109;1.66626e-05;10 mA;
223.837;0.556946;222;1111;1.68152e-05;10 mA;
224.237;0.557861;222.4;1113;1.65405e-05;10 mA;
224.637;0.558777;222.8;1115;1.68457e-05;10 mA;
225.037;0.559692;223.2;1117;1.68457e-05;10 mA;
225.437;0.560303;223.6;1119;1.64795e-05;10 mA;
225.837;0.561218;224;1121;1.66931e-05;10 mA;
226.237;0.562134;224.4;1123;1.66931e-05;10 mA;
226.637;0.563049;224.8;1125;1.67236e-05;10 mA;
227.037;0.563965;225.2;1127;1.66016e-05;10 mA;
227.437;0.56488;225.6;1129;1.67847e-05;10 mA;
227.837;0.565491;226;1131;1.67542e-05;10 mA;
228.237;0.566406;226.4;1133;1.6449e-05;10 mA;
228.637;0.567322;226.8;1135;1.69678e-05;10 mA;
229.037;0.568237;227.2;1137;1.66016e-05;10 mA;
229.437;0.569153;227.6;1139;1.68152e-05;10 mA;
229.837;0.570068;228;1141;1.68152e-05;10 mA;
230.237;0.570679;228.4;1143;1.6449e-05;10 mA;
230.637;0.571594;228.8;1145;1.67542e-05;10 mA;
231.037;0.57251;229.2;1147;1.67236e-05;10 mA;
231.437;0.573425;229.6;1149;1.66931e-05;10 mA;
231.837;0.574036;230;1151;1.66016e-05;10 mA;
232.237;0.574951;230.4;1153;1.68152e-05;10 mA;
232.637;0.575867;230.8;1155;1.69373e-05;10 mA;
233.037;0.576782;231.2;1157;1.68762e-05;10 mA;
233.437;0.577393;231.6;1159;1.66321e-05;10 mA;
233.837;0.578308;232;1161;1.68152e-05;10 mA;
234.237;0.579224;232.4;1163;1.66626e-05;10 mA;
234.637;0.580139;232.8;1165;1.67542e-05;10 mA;
235.037;0.581055;233.2;1167;1.67847e-05;10 mA;
235.437;0.581665;233.6;1169;1.68762e-05;10 mA;
235.837;0.582581;234;1171;1.65405e-05;10 mA;
236.237;0.583496;234.4;1173;1.66931e-05;10 mA;
236.637;0.584412;234.8;1175;1.68152e-05;10 mA;
237.037;0.585327;235.2;1177;1.66626e-05;10 mA;
237.437;0.5859375;235.6;1179;1.68152e-05;10 mA;
237.837;0.586853;236;1181;1.67236e-05;10 mA;
238.237;0.587769;236.4;1183;1.69373e-05;10 mA;
238.637;0.588684;236.8;1185;1.67236e-05;10 mA;
239.037;0.5896;237.2;1187;1.67236e-05;10 mA;
239.437;0.59021;237.6;1189;1.70593e-05;10 mA;
239.837;0.591125;238;1191;1.66321e-05;10 mA;
240.237;0.592041;238.4;1193;1.67542e-05;10 mA;
240.637;0.592957;238.8;1195;1.66626e-05;10 mA;
241.037;0.593872;239.2;1197;1.69678e-05;10 mA;
241.437;0.594788;239.6;1199;1.68152e-05;10 mA;
241.837;0.595398;240;1201;1.68457e-05;10 mA;
242.237;0.596313;240.4;1203;1.67542e-05;10 mA;
242.637;0.597229;240.8;1205;1.6571e-05;10 mA;
243.037;0.598145;241.2;1207;1.67847e-05;10 mA;
243.437;0.59906;241.6;1209;1.68762e-05;10 mA;
243.837;0.599976;242;1211;1.71814e-05;10 mA;
244.237;0.600891;242.4;1213;1.71204e-05;10 mA;
244.637;0.601807;242.8;1215;1.67236e-05;10 mA;
245.037;0.602417;243.2;1217;1.70898e-05;10 mA;
245.437;0.603333;243.6;1219;1.6571e-05;10 mA;
245.837;0.604248;244;1221;1.68457e-05;10 mA;
246.237;0.605164;244.4;1223;1.69373e-05;10 mA;
246.637;0.606079;244.8;1225;1.67847e-05;10 mA;
247.037;0.606689;245.2;1227;1.67236e-05;10 mA;
247.437;0.607605;245.6;1229;1.71509e-05;10 mA;
247.837;0.608521;246;1231;1.68152e-05;10 mA;
248.237;0.609436;246.4;1233;1.67236e-05;10 mA;
248.637;0.610352;246.8;1235;1.68762e-05;10 mA;
249.037;0.611267;247.2;1237;1.67542e-05;10 mA;
249.437;0.611877;247.6;1239;1.67847e-05;10 mA;
249.837;0.612793;248;1241;1.66626e-05;10 mA;
250.237;0.613708;248.4;1243;1.66931e-05;10 mA;
250.637;0.614624;248.8;1245;1.67236e-05;10 mA;
251.037;0.61554;249.2;1247;1.70288e-05;10 mA;
251.437;0.61615;249.6;1249;1.70288e-05;10 mA;
251.837;0.617065;250;1251;1.66321e-05;10 mA;
252.237;0.617981;250.4;1253;1.66321e-05;10 mA;
252.637;0.618896;250.8;1255;1.69678e-05;10 mA;
253.037;0.619812;251.2;1257;1.66321e-05;10 mA;
253.437;0.620728;251.6;1259;1.70898e-05;10 mA;
253.837;0.621643;252;1261;1.70593e-05;10 mA;
254.237;0.622253;252.4;1263;1.69678e-05;10 mA;
254.637;0.623169;252.8;1265;1.71509e-05;10 mA;
255.037;0.624084;253.2;1267;1.69373e-05;10 mA;
255.437;0.625;253.6;1269;1.66321e-05;10 mA;
255.837;0.625916;254;1271;1.68152e-05;10 mA;
256.237;0.626831;254.4;1273;1.68762e-05;10 mA;
256.637;0.627747;254.8;1275;1.66626e-05;10 mA;
257.037;0.628662;255.2;1277;1.69373e-05;10 mA;
257.437;0.629272;255.6;1279;1.67236e-05;10 mA;
257.837;0.630188;256;1281;1.66626e-05;10 mA;
258.237;0.631104;256.4;1283;1.69373e-05;10 mA;
258.637;0.632019;256.8;1285;1.66931e-05;10 mA;
259.037;0.632935;257.2;1287;1.66321e-05;10 mA;
259.437;0.63385;257.6;1289;1.67847e-05;10 mA;
259.837;0.634766;258;1291;1.69067e-05;10 mA;
260.237;0.635376;258.4;1293;1.64795e-05;10 mA;
260.637;0.636292;258.8;1295;1.68457e-05;10 mA;
261.037;0.637207;259.2;1297;1.69067e-05;10 mA;
261.437;0.638123;259.6;1299;1.67542e-05;10 mA;
261.837;0.639038;260;1301;1.67542e-05;10 mA;
262.237;0.639954;260.4;1303;1.69373e-05;10 mA;
262.637;0.640564;260.8;1305;1.70288e-05;10 mA;
263.037;0.641479;261.2;1307;1.6449e-05;10 mA;
263.437;0.642395;261.6;1309;1.67847e-05;10 mA;
263.837;0.643311;262;1311;1.68762e-05;10 mA;
264.237;0.644226;262.4;1313;1.66931e-05;10 mA;
264.637;0.645142;262.8;1315;1.68457e-05;10 mA;
265.037;0.646057;263.2;1317;1.69373e-05;10 mA;
265.437;0.646667;263.6;1319;1.68152e-05;10 mA;
265.837;0.647583;264;1321;1.65405e-05;10 mA;
266.237;0.648499;264.4;1323;1.71814e-05;10 mA;
266.637;0.649414;264.8;1325;1.70898e-05;10 mA;
267.037;0.65033;265.2;1327;1.70898e-05;10 mA;
267.437;0.651245;265.6;1329;1.66931e-05;10 mA;
267.837;0.651855;266;1331;1.68762e-05;10 mA;
268.237;0.652771;266.4;1333;1.69983e-05;10 mA;
268.637;0.653687;266.8;1335;1.66626e-05;10 mA;
269.037;0.654602;267.2;1337;1.66931e-05;10 mA;
269.437;0.655518;267.6;1339;1.69678e-05;10 mA;
269.837;0.656433;268;1341;1.70288e-05;10 mA;
270.237;0.657349;268.4;1343;1.66626e-05;10 mA;
270.637;0.658264;268.8;1345;1.71509e-05;10 mA;
271.037;0.658875;269.2;1347;1.66931e-05;10 mA;
271.437;0.65979;269.6;1349;1.64185e-05;10 mA;
271.837;0.660706;270;1351;1.67236e-05;10 mA;
272.237;0.661621;270.4;1353;1.68457e-05;10 mA;
272.637;0.662231;270.8;1355;1.67236e-05;10 mA;
273.037;0.663147;271.2;1357;1.69067e-05;10 mA;
273.437;0.6640625;271.6;1359;1.66321e-05;10 mA;
273.837;0.664978;272;1361;1.69067e-05;10 mA;
274.237;0.665894;272.4;1363;1.71204e-05;10 mA;
274.637;0.666809;272.8;1365;1.66321e-05;10 mA;
275.037;0.667725;273.2;1367;1.69373e-05;10 mA;
275.437;0.668335;273.6;1369;1.68457e-05;10 mA;
275.837;0.66925;274;1371;1.66321e-05;10 mA;
276.237;0.670166;274.4;1373;1.6571e-05;10 mA;
276.637;0.671082;274.8;1375;1.69067e-05;10 mA;
277.037;0.671692;275.2;1377;1.67542e-05;10 mA;
277.437;0.672607;275.6;1379;1.71204e-05;10 mA;
277.837;0.673523;276;1381;1.70898e-05;10 mA;
278.237;0.674438;276.4;1383;1.63879e-05;10 mA;
278.637;0.675049;276.8;1385;1.67542e-05;10 mA;
279.037;0.675964;277.2;1387;1.66931e-05;10 mA;
279.437;0.67688;277.6;1389;1.66626e-05;10 mA;
279.837;0.677795;278;1391;1.70288e-05;10 mA;
280.237;0.678711;278.4;1393;1.68457e-05;10 mA;
280.637;0.679626;278.8;1395;1.6571e-05;10 mA;
281.037;0.680237;279.2;1397;1.70593e-05;10 mA;
281.437;0.681152;279.6;1399;1.67236e-05;10 mA;
281.837;0.682068;280;1401;1.69983e-05;10 mA;
282.237;0.682983;280.4;1403;1.68457e-05;10 mA;
282.637;0.683899;280.8;1405;1.68762e-05;10 mA;
283.037;0.684814;281.2;1407;1.69067e-05;10 mA;
283.437;0.685425;281.6;1409;1.70288e-05;10 mA;
283.837;0.68634;282;1411;1.66321e-05;10 mA;
284.237;0.687256;282.4;1413;1.67236e-05;10 mA;
284.637;0.688171;282.8;1415;1.70593e-05;10 mA;
285.037;0.689087;283.2;1417;1.70288e-05;10 mA;
285.437;0.689697;283.6;1419;1.651e-05;10 mA;
285.837;0.690613;284;1421;1.70593e-05;10 mA;
286.237;0.691528;284.4;1423;1.69067e-05;10 mA;
286.637;0.692444;284.8;1425;1.66626e-05;10 mA;
287.037;0.693359;285.2;1427;1.70593e-05;10 mA;
287.437;0.69397;285.6;1429;1.69678e-05;10 mA;
287.837;0.694885;286;1431;1.69373e-05;10 mA;
288.237;0.695801;286.4;1433;1.70593e-05;10 mA;
288.637;0.696716;286.8;1435;1.68152e-05;10 mA;
289.037;0.697327;287.2;1437;1.69983e-05;10 mA;
289.437;0.698242;287.6;1439;1.67542e-05;10 mA;
289.837;0.699158;288;1441;1.68457e-05;10 mA;
290.237;0.700073;288.4;1443;1.67542e-05;10 mA;
290.637;0.700684;288.8;1445;1.69067e-05;10 mA;
291.037;0.701599;289.2;1447;1.69983e-05;10 mA;
291.437;0.702515;289.6;1449;1.66626e-05;10 mA;
291.837;0.70343;290;1451;1.66321e-05;10 mA;
292.237;0.704041;290.4;1453;1.68762e-05;10 mA;
292.637;0.704956;290.8;1455;1.69373e-05;10 mA;
293.037;0.705872;291.2;1457;1.67542e-05;10 mA;
293.437;0.706787;291.6;1459;1.66931e-05;10 mA;
293.837;0.707397;292;1461;1.66016e-05;10 mA;
294.237;0.708313;292.4;1463;1.69067e-05;10 mA;
294.637;0.709229;292.8;1465;1.6571e-05;10 mA;
295.037;0.709839;293.2;1467;1.71814e-05;10 mA;
295.437;0.710754;293.6;1469;1.69373e-05;10 mA;
295.837;0.71167;294;1471;1.71204e-05;10 mA;
296.237;0.71228;294.4;1473;1.68457e-05;10 mA;
296.637;0.713196;294.8;1475;1.67542e-05;10 mA;
297.037;0.714111;295.2;1477;1.68152e-05;10 mA;
297.437;0.714722;295.6;1479;1.68152e-05;10 mA;
297.837;0.715637;296;1481;1.69067e-05;10 mA;
298.237;0.716553;296.4;1483;1.66931e-05;10 mA;
298.637;0.717163;296.8;1485;1.67847e-05;10 mA;
299.037;0.718079;297.2;1487;1.66016e-05;10 mA;
299.437;0.718689;297.6;1489;1.68152e-05;10 mA;
299.837;0.719604;298;1491;1.66626e-05;10 mA;
300.237;0.720215;298.4;1493;1.69373e-05;10 mA;
300.637;0.72113;298.8;1495;1.69678e-05;10 mA;
301.037;0.722046;299.2;1497;1.70898e-05;10 mA;
301.437;0.722961;299.6;1499;1.70288e-05;10 mA;
301.837;0.723572;300;1501;1.64795e-05;10 mA;
302.237;0.724487;300.4;1503;1.69067e-05;10 mA;
302.637;0.725098;300.8;1505;1.67542e-05;10 mA;
303.037;0.726013;301.2;1507;1.69678e-05;10 mA;
303.437;0.726929;301.6;1509;1.68457e-05;10 mA;
303.837;0.727539;302;1511;1.68457e-05;10 mA;
304.237;0.728455;302.4;1513;1.68152e-05;10 mA;
304.637;0.729065;302.8;1515;1.67542e-05;10 mA;
305.037;0.72998;303.2;1517;1.68457e-05;10 mA;
305.437;0.730896;303.6;1519;1.71814e-05;10 mA;
305.837;0.731506;304;1521;1.73035e-05;10 mA;
306.237;0.732117;304.4;1523;1.67236e-05;10 mA;
306.637;0.733032;304.8;1525;1.68152e-05;10 mA;
307.037;0.733643;305.2;1527;1.68457e-05;10 mA;
307.437;0.734558;305.6;1529;1.73035e-05;10 mA;
307.837;0.735168;306;1531;1.67847e-05;10 mA;
308.237;0.736084;306.4;1533;1.69983e-05;10 mA;
308.637;0.736694;306.8;1535;1.69983e-05;10 mA;
309.037;0.73761;307.2;1537;1.68762e-05;10 mA;
309.437;0.73822;307.6;1539;1.69067e-05;10 mA;
309.837;0.739136;308;1541;1.70898e-05;10 mA;
310.237;0.739746;308.4;1543;1.70288e-05;10 mA;
310.637;0.740662;308.8;1545;1.67542e-05;10 mA;
311.037;0.741272;309.2;1547;1.65405e-05;10 mA;
311.437;0.7421875;309.6;1549;1.68762e-05;10 mA;
311.837;0.743103;310;1551;1.69983e-05;10 mA;
312.237;0.743713;310.4;1553;1.66626e-05;10 mA;
312.637;0.744324;310.8;1555;1.66321e-05;10 mA;
313.037;0.745239;311.2;1557;1.69373e-05;10 mA;
313.437;0.74585;311.6;1559;1.69373e-05;10 mA;
313.837;0.74646;312;1561;1.70593e-05;10 mA;
314.237;0.747375;312.4;1563;1.70593e-05;10 mA;
314.637;0.747986;312.8;1565;1.68457e-05;10 mA;
315.037;0.748901;313.2;1567;1.69373e-05;10 mA;
315.437;0.749512;313.6;1569;1.67542e-05;10 mA;
315.837;0.750122;314;1571;1.67847e-05;10 mA;
316.237;0.750732;314.4;1573;1.70288e-05;10 mA;
316.637;0.751648;314.8;1575;1.66321e-05;10 mA;
317.037;0.752258;315.2;1577;1.71204e-05;10 mA;
317.437;0.752869;315.6;1579;1.69067e-05;10 mA;
317.837;0.753784;316;1581;1.71814e-05;10 mA;
318.237;0.754395;316.4;1583;1.6571e-05;10 mA;
318.637;0.755005;316.8;1585;1.68152e-05;10 mA;
319.037;0.75592;317.2;1587;1.68762e-05;10 mA;
319.437;0.756531;317.6;1589;1.63574e-05;10 mA;
319.837;0.757141;318;1591;1.71509e-05;10 mA;
320.237;0.757751;318.4;1593;1.67542e-05;10 mA;
320.637;0.758362;318.8;1595;1.68762e-05;10 mA;
321.037;0.759277;319.2;1597;1.69678e-05;10 mA;
321.437;0.759888;319.6;1599;1.67236e-05;10 mA;
321.837;0.760498;320;1601;1.70288e-05;10 mA;
322.237;0.761108;320.4;1603;1.71204e-05;10 mA;
322.637;0.762024;320.8;1605;1.69678e-05;10 mA;
323.037;0.762634;321.2;1607;1.69678e-05;10 mA;
323.437;0.763245;321.6;1609;1.68762e-05;10 mA;
323.837;0.763855;322;1611;1.71814e-05;10 mA;
324.237;0.764771;322.4;1613;1.69678e-05;10 mA;
324.637;0.765381;322.8;1615;1.68152e-05;10 mA;
325.037;0.765991;323.2;1617;1.68457e-05;10 mA;
325.437;0.766602;323.6;1619;1.69067e-05;10 mA;
325.837;0.767212;324;1621;1.72119e-05;10 mA;
326.237;0.767822;324.4;1623;1.6571e-05;10 mA;
326.637;0.768433;324.8;1625;1.68152e-05;10 mA;
327.037;0.769043;325.2;1627;1.71509e-05;10 mA;
327.437;0.769653;325.6;1629;1.68457e-05;10 mA;
327.837;0.770264;326;1631;1.70898e-05;10 mA;
328.237;0.770874;326.4;1633;1.6449e-05;10 mA;
328.637;0.771484;326.8;1635;1.67847e-05;10 mA;
329.037;0.772095;327.2;1637;1.68457e-05;10 mA;
329.437;0.772705;327.6;1639;1.68762e-05;10 mA;
329.837;0.773315;328;1641;1.70593e-05;10 mA;
330.237;0.773926;328.4;1643;1.70288e-05;10 mA;
330.637;0.774536;328.8;1645;1.70593e-05;10 mA;
331.037;0.775146;329.2;1647;1.66626e-05;10 mA;
331.437;0.775757;329.6;1649;1.69067e-05;10 mA;
331.837;0.776367;330;1651;1.70288e-05;10 mA;
332.237;0.776978;330.4;1653;1.70898e-05;10 mA;
332.637;0.777588;330.8;1655;1.70288e-05;10 mA;
333.037;0.778198;331.2;1657;1.69983e-05;10 mA;
333.437;0.779114;331.6;1659;1.71509e-05;10 mA;
333.837;0.779419;332;1661;1.65405e-05;10 mA;
334.237;0.780029;332.4;1663;1.67847e-05;10 mA;
334.637;0.78064;332.8;1665;1.70898e-05;10 mA;
335.037;0.78125;333.2;1667;1.69983e-05;10 mA;
335.437;0.78186;333.6;1669;1.68457e-05;10 mA;
335.837;0.782471;334;1671;1.70288e-05;10 mA;
336.237;0.782776;334.4;1673;1.68762e-05;10 mA;
336.637;0.783386;334.8;1675;1.67236e-05;10 mA;
337.037;0.783997;335.2;1677;1.68152e-05;10 mA;
337.437;0.784607;335.6;1679;1.67542e-05;10 mA;
337.837;0.785217;336;1681;1.67542e-05;10 mA;
338.237;0.785522;336.4;1683;1.68762e-05;10 mA;
338.637;0.786133;336.8;1685;1.72119e-05;10 mA;
339.037;0.786743;337.2;1687;1.69983e-05;10 mA;
339.437;0.787354;337.6;1689;1.69678e-05;10 mA;
339.837;0.787964;338;1691;1.69373e-05;10 mA;
340.237;0.788269;338.4;1693;1.69983e-05;10 mA;
340.637;0.788879;338.8;1695;1.69067e-05;10 mA;
341.037;0.78949;339.2;1697;1.66931e-05;10 mA;
341.437;0.7901;339.6;1699;1.67236e-05;10 mA;
341.837;0.790405;340;1701;1.66321e-05;10 mA;
342.237;0.791016;340.4;1703;1.67847e-05;10 mA;
342.637;0.791321;340.8;1705;1.69678e-05;10 mA;
343.037;0.791931;341.2;1707;1.69678e-05;10 mA;
343.437;0.792542;341.6;1709;1.67236e-05;10 mA;
343.837;0.792847;342;1711;1.70288e-05;10 mA;
344.237;0.793457;342.4;1713;1.67847e-05;10 mA;
344.637;0.794067;342.8;1715;1.69983e-05;10 mA;
345.037;0.794373;343.2;1717;1.67542e-05;10 mA;
345.437;0.794983;343.6;1719;1.66321e-05;10 mA;
345.837;0.795593;344;1721;1.67847e-05;10 mA;
346.237;0.796204;344.4;1723;1.68152e-05;10 mA;
346.637;0.796509;344.8;1725;1.6449e-05;10 mA;
347.037;0.797119;345.2;1727;1.69067e-05;10 mA;
347.437;0.797424;345.6;1729;1.7334e-05;10 mA;
347.837;0.798035;346;1731;1.68762e-05;10 mA;
348.237;0.798645;346.4;1733;1.7334e-05;10 mA;
348.637;0.79895;346.8;1735;1.63574e-05;10 mA;
349.037;0.799561;347.2;1737;1.70288e-05;10 mA;
349.437;0.799866;347.6;1739;1.69067e-05;10 mA;
349.837;0.800476;348;1741;1.66321e-05;10 mA;
350.237;0.800781;348.4;1743;1.67542e-05;10 mA;
350.637;0.801392;348.8;1745;1.70898e-05;10 mA;
351.037;0.801697;349.2;1747;1.67847e-05;10 mA;
351.437;0.802002;349.6;1749;1.67236e-05;10 mA;
351.837;0.802612;350;1751;1.66016e-05;10 mA;
352.237;0.803223;350.4;1753;1.69373e-05;10 mA;
352.637;0.803528;350.8;1755;1.70593e-05;10 mA;
353.037;0.804138;351.2;1757;1.67847e-05;10 mA;
353.437;0.804443;351.6;1759;1.68457e-05;10 mA;
353.837;0.805054;352;1761;1.67847e-05;10 mA;
354.237;0.805359;352.4;1763;1.66931e-05;10 mA;
354.637;0.805969;352.8;1765;1.69678e-05;10 mA;
355.037;0.806274;353.2;1767;1.69983e-05;10 mA;
355.437;0.80658;353.6;1769;1.67847e-05;10 mA;
355.837;0.80719;354;1771;1.73035e-05;10 mA;
356.237;0.807495;354.4;1773;1.66931e-05;10 mA;
356.637;0.808105;354.8;1775;1.67847e-05;10 mA;
357.037;0.808411;355.2;1777;1.71509e-05;10 mA;
357.437;0.809021;355.6;1779;1.651e-05;10 mA;
357.837;0.809326;356;1781;1.72119e-05;10 mA;
358.237;0.809937;356.4;1783;1.69678e-05;10 mA;
358.637;0.810242;356.8;1785;1.68762e-05;10 mA;
359.037;0.810852;357.2;1787;1.69983e-05;10 mA;
359.437;0.811462;357.6;1789;1.6571e-05;10 mA;
359.837;0.811768;358;1791;1.69373e-05;10 mA;
360.237;0.812378;358.4;1793;1.67542e-05;10 mA;
360.637;0.812683;358.8;1795;1.68457e-05;10 mA;
361.037;0.812988;359.2;1797;1.67236e-05;10 mA;
361.437;0.813599;359.6;1799;1.69678e-05;10 mA;
361.837;0.813904;360;1801;1.70898e-05;10 mA;
362.237;0.814514;360.4;1803;1.70288e-05;10 mA;
362.637;0.814819;360.8;1805;1.71509e-05;10 mA;
363.037;0.815125;361.2;1807;1.67236e-05;10 mA;
363.437;0.81543;361.6;1809;1.69067e-05;10 mA;
363.837;0.81604;362;1811;1.68152e-05;10 mA;
364.237;0.816345;362.4;1813;1.68762e-05;10 mA;
364.637;0.81665;362.8;1815;1.71204e-05;10 mA;
365.037;0.817261;363.2;1817;1.651e-05;10 mA;
365.437;0.817566;363.6;1819;1.6571e-05;10 mA;
365.837;0.817871;364;1821;1.68457e-05;10 mA;
366.237;0.818481;364.4;1823;1.69983e-05;10 mA;
366.637;0.818787;364.8;1825;1.69373e-05;10 mA;
367.037;0.819092;365.2;1827;1.67847e-05;10 mA;
367.437;0.819397;365.6;1829;1.67847e-05;10 mA;
367.837;0.819702;366;1831;1.67542e-05;10 mA;
368.237;0.8203125;366.4;1833;1.67542e-05;10 mA;
368.637;0.820618;366.8;1835;1.69373e-05;10 mA;
369.037;0.821228;367.2;1837;1.67542e-05;10 mA;
369.437;0.821533;367.6;1839;1.67236e-05;10 mA;
369.837;0.821838;368;1841;1.71204e-05;10 mA;
370.237;0.822449;368.4;1843;1.69983e-05;10 mA;
370.637;0.822754;368.8;1845;1.70593e-05;10 mA;
371.037;0.823059;369.2;1847;1.7334e-05;10 mA;
371.437;0.823364;369.6;1849;1.70898e-05;10 mA;
371.837;0.823669;370;1851;1.68457e-05;10 mA;
372.237;0.823975;370.4;1853;1.69678e-05;10 mA;
372.637;0.824585;370.8;1855;1.6571e-05;10 mA;
373.037;0.82489;371.2;1857;1.70898e-05;10 mA;
373.437;0.825195;371.6;1859;1.66321e-05;10 mA;
373.837;0.8255;372;1861;1.69983e-05;10 mA;
374.237;0.825806;372.4;1863;1.68457e-05;10 mA;
374.637;0.826111;372.8;1865;1.69983e-05;10 mA;
375.037;0.826416;373.2;1867;1.69983e-05;10 mA;
375.437;0.827026;373.6;1869;1.68457e-05;10 mA;
375.837;0.827332;374;1871;1.68762e-05;10 mA;
376.237;0.827637;374.4;1873;1.67847e-05;10 mA;
376.637;0.827942;374.8;1875;1.70593e-05;10 mA;
377.037;0.828247;375.2;1877;1.71204e-05;10 mA;
377.437;0.828552;375.6;1879;1.66321e-05;10 mA;
377.837;0.828857;376;1881;1.69067e-05;10 mA;
378.237;0.829163;376.4;1883;1.63574e-05;10 mA;
378.637;0.829468;376.8;1885;1.69678e-05;10 mA;
379.037;0.830078;377.2;1887;1.70898e-05;10 mA;
379.437;0.830383;377.6;1889;1.70898e-05;10 mA;
379.837;0.830688;378;1891;1.70898e-05;10 mA;
380.237;0.830994;378.4;1893;1.69678e-05;10 mA;
380.637;0.831299;378.8;1895;1.66626e-05;10 mA;
381.037;0.831604;379.2;1897;1.70288e-05;10 mA;
381.437;0.831909;379.6;1899;1.68152e-05;10 mA;
381.837;0.832214;380;1901;1.66016e-05;10 mA;
382.237;0.83252;380.4;1903;1.69067e-05;10 mA;
382.637;0.832825;380.8;1905;1.68762e-05;10 mA;
383.037;0.83313;381.2;1907;1.71814e-05;10 mA;
383.437;0.833435;381.6;1909;1.69067e-05;10 mA;
383.837;0.83374;382;1911;1.70593e-05;10 mA;
384.237;0.834045;382.4;1913;1.68152e-05;10 mA;
384.637;0.834351;382.8;1915;1.68152e-05;10 mA;
385.037;0.834656;383.2;1917;1.70593e-05;10 mA;
385.437;0.834961;383.6;1919;1.68152e-05;10 mA;
385.837;0.835266;384;1921;1.67542e-05;10 mA;
386.237;0.835571;384.4;1923;1.66321e-05;10 mA;
386.637;0.836182;384.8;1925;1.70898e-05;10 mA;
387.037;0.836487;385.2;1927;1.70898e-05;10 mA;
387.437;0.836487;385.6;1929;1.71509e-05;10 mA;
387.837;0.837097;386;1931;1.68457e-05;10 mA;
388.237;0.837402;386.4;1933;1.70288e-05;10 mA;
388.637;0.837708;386.8;1935;1.68762e-05;10 mA;
389.037;0.838013;387.2;1937;1.73035e-05;10 mA;
389.437;0.838318;387.6;1939;1.67542e-05;10 mA;
389.837;0.838623;388;1941;1.67847e-05;10 mA;
390.237;0.838928;388.4;1943;1.71509e-05;10 mA;
390.637;0.839233;388.8;1945;1.72119e-05;10 mA;
391.037;0.839539;389.2;1947;1.67847e-05;10 mA;
391.437;0.839844;389.6;1949;1.69678e-05;10 mA;
391.837;0.840149;390;1951;1.6571e-05;10 mA;
392.237;0.840454;390.4;1953;1.71814e-05;10 mA;
392.637;0.840759;390.8;1955;1.69373e-05;10 mA;
393.037;0.841064;391.2;1957;1.69983e-05;10 mA;
393.437;0.84137;391.6;1959;1.69373e-05;10 mA;
393.837;0.841675;392;1961;1.71204e-05;10 mA;
394.237;0.84198;392.4;1963;1.66016e-05;10 mA;
394.637;0.842285;392.8;1965;1.67847e-05;10 mA;
395.037;0.84259;393.2;1967;1.69678e-05;10 mA;
395.437;0.842896;393.6;1969;1.69678e-05;10 mA;
395.837;0.843201;394;1971;1.69067e-05;10 mA;
396.237;0.843506;394.4;1973;1.70593e-05;10 mA;
396.637;0.843811;394.8;1975;1.70288e-05;10 mA;
397.037;0.844116;395.2;1977;1.70593e-05;10 mA;
397.437;0.844421;395.6;1979;1.68152e-05;10 mA;
397.837;0.844727;396;1981;1.66931e-05;10 mA;
398.237;0.845032;396.4;1983;1.69678e-05;10 mA;
398.637;0.845337;396.8;1985;1.69373e-05;10 mA;
399.037;0.845642;397.2;1987;1.72119e-05;10 mA;
399.437;0.845947;397.6;1989;1.68152e-05;10 mA;
399.837;0.846252;398;1991;1.66931e-05;10 mA;
400.237;0.846558;398.4;1993;1.70288e-05;10 mA;
400.637;0.846863;398.8;1995;1.71814e-05;10 mA;
401.037;0.847168;399.2;1997;1.67236e-05;10 mA;
401.437;0.847473;399.6;1999;1.68457e-05;10 mA;
401.837;0.847778;400;2001;1.71204e-05;10 mA;
402.237;0.847778;400.4;2003;1.66931e-05;10 mA;
402.637;0.848389;400.8;2005;1.70593e-05;10 mA;
403.037;0.848694;401.2;2007;1.71204e-05;10 mA;
403.437;0.848694;401.6;2009;1.67847e-05;10 mA;
403.837;0.848999;402;2011;1.72119e-05;10 mA;
404.237;0.849304;402.4;2013;1.67847e-05;10 mA;
404.637;0.849609;402.8;2015;1.66931e-05;10 mA;
405.037;0.849915;403.2;2017;1.70593e-05;10 mA;
405.437;0.85022;403.6;2019;1.65405e-05;10 mA;WE(1).Potential > 0,85 V
405.837;0.850525;404;2021;1.67542e-05;10 mA;WE(1).Potential > 0,85 V