File: CD-Mxene3-5Ag-CARGA.txt
Time (s);WE(1).Potential (V);Corrected time (s);Index;WE(1).Current (A);Current range;Cutoffs
196.114;-0.0126404;0;1;5.59998e-05;10 mA;WE(1).Potential > 0,85 V , WE(1).Potential > 0,85 V , WE(1).Potential > 0,85 V , WE(1).Potential > 0,85 V
196.314;-0.00266724;0.2;2;5.59387e-05;10 mA;
196.514;0.0054657;0.4;3;5.58777e-05;10 mA;
196.714;0.0126068;0.6;4;5.61523e-05;10 mA;
196.914;0.019046;0.8;5;5.57861e-05;10 mA;
197.114;0.0249176;1;6;5.59387e-05;10 mA;
197.314;0.0303925;1.2;7;5.58167e-05;10 mA;
197.514;0.0355499;1.4;8;5.61829e-05;10 mA;
197.714;0.0404968;1.6;9;5.61829e-05;10 mA;
197.914;0.0451782;1.8;10;5.62134e-05;10 mA;
198.114;0.0496826;2;11;5.58167e-05;10 mA;
198.314;0.0540771;2.2;12;5.63354e-05;10 mA;
198.514;0.0582886;2.4;13;5.65491e-05;10 mA;
198.714;0.0623474;2.6;14;5.61218e-05;10 mA;
198.914;0.0662842;2.8;15;5.62439e-05;10 mA;
199.114;0.0701599;3;16;5.60913e-05;10 mA;
199.314;0.0739136;3.2;17;5.62134e-05;10 mA;
199.514;0.0775757;3.4;18;5.63049e-05;10 mA;
199.714;0.0811768;3.6;19;5.60913e-05;10 mA;
199.914;0.0846863;3.8;20;5.62439e-05;10 mA;
200.114;0.0881348;4;21;5.63965e-05;10 mA;
200.314;0.0915833;4.2;22;5.62439e-05;10 mA;
200.514;0.0949097;4.4;23;5.61829e-05;10 mA;
200.714;0.0982056;4.6;24;5.60608e-05;10 mA;
200.914;0.10141;4.8;25;5.59387e-05;10 mA;
201.114;0.104614;5;26;5.62439e-05;10 mA;
201.314;0.107758;5.2;27;5.56946e-05;10 mA;
201.514;0.11084;5.4;28;5.61829e-05;10 mA;
201.714;0.113892;5.6;29;5.60913e-05;10 mA;
201.914;0.116882;5.8;30;5.61218e-05;10 mA;
202.114;0.119843;6;31;5.62744e-05;10 mA;
202.314;0.122772;6.2;32;5.65186e-05;10 mA;
202.514;0.125641;6.4;33;5.60913e-05;10 mA;
202.714;0.128479;6.6;34;5.57861e-05;10 mA;
202.914;0.131287;6.8;35;5.64575e-05;10 mA;
203.114;0.134064;7;36;5.63965e-05;10 mA;
203.314;0.136871;7.2;37;5.62744e-05;10 mA;
203.514;0.139587;7.4;38;5.61829e-05;10 mA;
203.714;0.142242;7.6;39;5.64575e-05;10 mA;
203.914;0.144897;7.8;40;5.63049e-05;10 mA;
204.114;0.147522;8;41;5.60913e-05;10 mA;
204.314;0.150146;8.2;42;5.6427e-05;10 mA;
204.514;0.15271;8.4;43;5.63049e-05;10 mA;
204.714;0.155243;8.6;44;5.61218e-05;10 mA;
204.914;0.157745;8.8;45;5.62744e-05;10 mA;
205.114;0.160248;9;46;5.60913e-05;10 mA;
205.314;0.16275;9.2;47;5.60608e-05;10 mA;
205.514;0.165253;9.4;48;5.61523e-05;10 mA;
205.714;0.167664;9.6;49;5.61523e-05;10 mA;
205.914;0.170074;9.8;50;5.64575e-05;10 mA;
206.114;0.172424;10;51;5.63354e-05;10 mA;
206.314;0.174835;10.2;52;5.62134e-05;10 mA;
206.514;0.177246;10.4;53;5.64575e-05;10 mA;
206.714;0.179535;10.6;54;5.59692e-05;10 mA;
206.914;0.181885;10.8;55;5.62134e-05;10 mA;
207.114;0.184204;11;56;5.59692e-05;10 mA;
207.314;0.186493;11.2;57;5.66406e-05;10 mA;
207.514;0.188782;11.4;58;5.63354e-05;10 mA;
207.714;0.19104;11.6;59;5.6366e-05;10 mA;
207.914;0.193268;11.8;60;5.60913e-05;10 mA;
208.114;0.195465;12;61;5.60303e-05;10 mA;
208.314;0.197632;12.2;62;5.60913e-05;10 mA;
208.514;0.199799;12.4;63;5.6366e-05;10 mA;
208.714;0.201965;12.6;64;5.63354e-05;10 mA;
208.914;0.204102;12.8;65;5.62439e-05;10 mA;
209.114;0.206238;13;66;5.61523e-05;10 mA;
209.314;0.208344;13.2;67;5.6488e-05;10 mA;
209.514;0.210419;13.4;68;5.60303e-05;10 mA;
209.714;0.212494;13.6;69;5.6366e-05;10 mA;
209.914;0.214569;13.8;70;5.62744e-05;10 mA;
210.114;0.216644;14;71;5.59692e-05;10 mA;
210.314;0.218719;14.2;72;5.61829e-05;10 mA;
210.514;0.220734;14.4;73;5.60303e-05;10 mA;
210.714;0.222748;14.6;74;5.61218e-05;10 mA;
210.914;0.224762;14.8;75;5.60913e-05;10 mA;
211.114;0.226746;15;76;5.63965e-05;10 mA;
211.314;0.228699;15.2;77;5.65186e-05;10 mA;
211.514;0.230682;15.4;78;5.62439e-05;10 mA;
211.714;0.232635;15.6;79;5.61829e-05;10 mA;
211.914;0.234558;15.8;80;5.61218e-05;10 mA;
212.114;0.236542;16;81;5.60608e-05;10 mA;
212.314;0.238464;16.2;82;5.61829e-05;10 mA;
212.514;0.240387;16.4;83;5.60913e-05;10 mA;
212.714;0.24234;16.6;84;5.63354e-05;10 mA;
212.914;0.244263;16.8;85;5.61523e-05;10 mA;
213.114;0.246155;17;86;5.61218e-05;10 mA;
213.314;0.248047;17.2;87;5.62439e-05;10 mA;
213.514;0.249939;17.4;88;5.59692e-05;10 mA;
213.714;0.251801;17.6;89;5.66101e-05;10 mA;
213.914;0.253662;17.8;90;5.65491e-05;10 mA;
214.114;0.255524;18;91;5.61218e-05;10 mA;
214.314;0.257385;18.2;92;5.60913e-05;10 mA;
214.514;0.259186;18.4;93;5.62134e-05;10 mA;
214.714;0.261047;18.6;94;5.6366e-05;10 mA;
214.914;0.262848;18.8;95;5.59692e-05;10 mA;
215.114;0.264679;19;96;5.62744e-05;10 mA;
215.314;0.266479;19.2;97;5.63354e-05;10 mA;
215.514;0.26825;19.4;98;5.59692e-05;10 mA;
215.714;0.27002;19.6;99;5.65491e-05;10 mA;
215.914;0.27179;19.8;100;5.62744e-05;10 mA;
216.114;0.273529;20;101;5.64575e-05;10 mA;
216.314;0.275299;20.2;102;5.62439e-05;10 mA;
216.514;0.277069;20.4;103;5.66406e-05;10 mA;
216.714;0.278778;20.6;104;5.65491e-05;10 mA;
216.914;0.280518;20.8;105;5.63049e-05;10 mA;
217.114;0.282227;21;106;5.59692e-05;10 mA;
217.314;0.283936;21.2;107;5.62134e-05;10 mA;
217.514;0.285645;21.4;108;5.60303e-05;10 mA;
217.714;0.287384;21.6;109;5.63354e-05;10 mA;
217.914;0.2890625;21.8;110;5.60608e-05;10 mA;
218.114;0.290741;22;111;5.62134e-05;10 mA;
218.314;0.29245;22.2;112;5.6366e-05;10 mA;
218.514;0.294128;22.4;113;5.6488e-05;10 mA;
218.714;0.295837;22.6;114;5.61829e-05;10 mA;
218.914;0.297424;22.8;115;5.62134e-05;10 mA;
219.114;0.299103;23;116;5.62744e-05;10 mA;
219.314;0.300751;23.2;117;5.6488e-05;10 mA;
219.514;0.302399;23.4;118;5.61829e-05;10 mA;
219.714;0.304016;23.6;119;5.6366e-05;10 mA;
219.914;0.305664;23.8;120;5.63049e-05;10 mA;
220.114;0.307251;24;121;5.63965e-05;10 mA;
220.314;0.308868;24.2;122;5.6366e-05;10 mA;
220.514;0.310455;24.4;123;5.66101e-05;10 mA;
220.714;0.312073;24.6;124;5.6427e-05;10 mA;
220.914;0.313629;24.8;125;5.61218e-05;10 mA;
221.114;0.315186;25;126;5.63354e-05;10 mA;
221.314;0.316772;25.2;127;5.60608e-05;10 mA;
221.514;0.318359;25.4;128;5.61523e-05;10 mA;
221.714;0.319946;25.6;129;5.59387e-05;10 mA;
221.914;0.321472;25.8;130;5.63965e-05;10 mA;
222.114;0.323029;26;131;5.6366e-05;10 mA;
222.314;0.324585;26.2;132;5.63965e-05;10 mA;
222.514;0.326141;26.4;133;5.61218e-05;10 mA;
222.714;0.327698;26.6;134;5.6366e-05;10 mA;
222.914;0.329224;26.8;135;5.62439e-05;10 mA;
223.114;0.330719;27;136;5.65491e-05;10 mA;
223.314;0.332245;27.2;137;5.63354e-05;10 mA;
223.514;0.33374;27.4;138;5.59692e-05;10 mA;
223.714;0.335266;27.6;139;5.62744e-05;10 mA;
223.914;0.336761;27.8;140;5.6488e-05;10 mA;
224.114;0.338226;28;141;5.62744e-05;10 mA;
224.314;0.339752;28.2;142;5.64575e-05;10 mA;
224.514;0.341278;28.4;143;5.61829e-05;10 mA;
224.714;0.342743;28.6;144;5.63049e-05;10 mA;
224.914;0.344177;28.8;145;5.63049e-05;10 mA;
225.114;0.345642;29;146;5.61829e-05;10 mA;
225.314;0.347137;29.2;147;5.63049e-05;10 mA;
225.514;0.348572;29.4;148;5.60913e-05;10 mA;
225.714;0.350037;29.6;149;5.61523e-05;10 mA;
225.914;0.351501;29.8;150;5.62439e-05;10 mA;
226.114;0.352966;30;151;5.63965e-05;10 mA;
226.314;0.354401;30.2;152;5.60303e-05;10 mA;
226.514;0.355865;30.4;153;5.62744e-05;10 mA;
226.714;0.3573;30.6;154;5.60303e-05;10 mA;
226.914;0.358704;30.8;155;5.60608e-05;10 mA;
227.114;0.360107;31;156;5.63965e-05;10 mA;
227.314;0.361542;31.2;157;5.64575e-05;10 mA;
227.514;0.363007;31.4;158;5.62134e-05;10 mA;
227.714;0.36441;31.6;159;5.62744e-05;10 mA;
227.914;0.365784;31.8;160;5.64575e-05;10 mA;
228.114;0.367249;32;161;5.62744e-05;10 mA;
228.314;0.368622;32.2;162;5.65186e-05;10 mA;
228.514;0.369995;32.4;163;5.63965e-05;10 mA;
228.714;0.371399;32.6;164;5.62439e-05;10 mA;
228.914;0.372803;32.8;165;5.6427e-05;10 mA;
229.114;0.374146;33;166;5.63965e-05;10 mA;
229.314;0.375519;33.2;167;5.61829e-05;10 mA;
229.514;0.376923;33.4;168;5.61523e-05;10 mA;
229.714;0.378296;33.6;169;5.61218e-05;10 mA;
229.914;0.379669;33.8;170;5.60913e-05;10 mA;
230.114;0.381042;34;171;5.63965e-05;10 mA;
230.314;0.382355;34.2;172;5.63354e-05;10 mA;
230.514;0.383789;34.4;173;5.62744e-05;10 mA;
230.714;0.385101;34.6;174;5.60913e-05;10 mA;
230.914;0.386505;34.8;175;5.62134e-05;10 mA;
231.114;0.387878;35;176;5.63049e-05;10 mA;
231.314;0.389221;35.2;177;5.65491e-05;10 mA;
231.514;0.390594;35.4;178;5.60608e-05;10 mA;
231.714;0.391907;35.6;179;5.61829e-05;10 mA;
231.914;0.39325;35.8;180;5.6427e-05;10 mA;
232.114;0.394592;36;181;5.62744e-05;10 mA;
232.314;0.395935;36.2;182;5.6366e-05;10 mA;
232.514;0.397308;36.4;183;5.59387e-05;10 mA;
232.714;0.398682;36.6;184;5.62744e-05;10 mA;
232.914;0.400024;36.8;185;5.63049e-05;10 mA;
233.114;0.401398;37;186;5.6488e-05;10 mA;
233.314;0.40271;37.2;187;5.61829e-05;10 mA;
233.514;0.404083;37.4;188;5.63049e-05;10 mA;
233.714;0.405457;37.6;189;5.63049e-05;10 mA;
233.914;0.406799;37.8;190;5.6488e-05;10 mA;
234.114;0.408142;38;191;5.62134e-05;10 mA;
234.314;0.409485;38.2;192;5.6427e-05;10 mA;
234.514;0.410828;38.4;193;5.65186e-05;10 mA;
234.714;0.412201;38.6;194;5.62134e-05;10 mA;
234.914;0.413544;38.8;195;5.63049e-05;10 mA;
235.114;0.414948;39;196;5.61523e-05;10 mA;
235.314;0.416321;39.2;197;5.60303e-05;10 mA;
235.514;0.417694;39.4;198;5.63049e-05;10 mA;
235.714;0.419067;39.6;199;5.63049e-05;10 mA;
235.914;0.420502;39.8;200;5.6366e-05;10 mA;
236.114;0.421844;40;201;5.66711e-05;10 mA;
236.314;0.423218;40.2;202;5.62134e-05;10 mA;
236.514;0.424591;40.4;203;5.61218e-05;10 mA;
236.714;0.425934;40.6;204;5.62439e-05;10 mA;
236.914;0.427277;40.8;205;5.62744e-05;10 mA;
237.114;0.428711;41;206;5.66406e-05;10 mA;
237.314;0.430084;41.2;207;5.64575e-05;10 mA;
237.514;0.431458;41.4;208;5.60608e-05;10 mA;
237.714;0.432861;41.6;209;5.63965e-05;10 mA;
237.914;0.434265;41.8;210;5.62744e-05;10 mA;
238.114;0.435669;42;211;5.63049e-05;10 mA;
238.314;0.437042;42.2;212;5.63354e-05;10 mA;
238.514;0.438477;42.4;213;5.6427e-05;10 mA;
238.714;0.43985;42.6;214;5.63049e-05;10 mA;
238.914;0.441254;42.8;215;5.67322e-05;10 mA;
239.114;0.442688;43;216;5.61829e-05;10 mA;
239.314;0.444092;43.2;217;5.63965e-05;10 mA;
239.514;0.445496;43.4;218;5.61218e-05;10 mA;
239.714;0.44696;43.6;219;5.6427e-05;10 mA;
239.914;0.448303;43.8;220;5.61218e-05;10 mA;
240.114;0.449768;44;221;5.64575e-05;10 mA;
240.314;0.451202;44.2;222;5.64575e-05;10 mA;
240.514;0.452606;44.4;223;5.61523e-05;10 mA;
240.714;0.454071;44.6;224;5.64575e-05;10 mA;
240.914;0.455475;44.8;225;5.60303e-05;10 mA;
241.114;0.45697;45;226;5.62744e-05;10 mA;
241.314;0.458374;45.2;227;5.59082e-05;10 mA;
241.514;0.459869;45.4;228;5.63049e-05;10 mA;
241.714;0.461334;45.6;229;5.63354e-05;10 mA;
241.914;0.462799;45.8;230;5.63049e-05;10 mA;
242.114;0.464264;46;231;5.65796e-05;10 mA;
242.314;0.465729;46.2;232;5.65491e-05;10 mA;
242.514;0.467224;46.4;233;5.6488e-05;10 mA;
242.714;0.468719;46.6;234;5.65491e-05;10 mA;
242.914;0.470154;46.8;235;5.64575e-05;10 mA;
243.114;0.471619;47;236;5.65796e-05;10 mA;
243.314;0.473175;47.2;237;5.6366e-05;10 mA;
243.514;0.47464;47.4;238;5.66711e-05;10 mA;
243.714;0.476105;47.6;239;5.66711e-05;10 mA;
243.914;0.47757;47.8;240;5.61218e-05;10 mA;
244.114;0.479065;48;241;5.6488e-05;10 mA;
244.314;0.480591;48.2;242;5.63354e-05;10 mA;
244.514;0.482086;48.4;243;5.6427e-05;10 mA;
244.714;0.483582;48.6;244;5.6488e-05;10 mA;
244.914;0.485046;48.8;245;5.68542e-05;10 mA;
245.114;0.486572;49;246;5.66101e-05;10 mA;
245.314;0.488129;49.2;247;5.62134e-05;10 mA;
245.514;0.489655;49.4;248;5.61523e-05;10 mA;
245.714;0.491211;49.6;249;5.6427e-05;10 mA;
245.914;0.492767;49.8;250;5.62134e-05;10 mA;
246.114;0.494324;50;251;5.63354e-05;10 mA;
246.314;0.49588;50.2;252;5.65796e-05;10 mA;
246.514;0.497437;50.4;253;5.6488e-05;10 mA;
246.714;0.498962;50.6;254;5.6366e-05;10 mA;
246.914;0.500488;50.8;255;5.64575e-05;10 mA;
247.114;0.502014;51;256;5.6366e-05;10 mA;
247.314;0.50354;51.2;257;5.67932e-05;10 mA;
247.514;0.505066;51.4;258;5.63049e-05;10 mA;
247.714;0.506592;51.6;259;5.65796e-05;10 mA;
247.914;0.508118;51.8;260;5.63354e-05;10 mA;
248.114;0.509949;52;261;5.65796e-05;10 mA;
248.314;0.511475;52.2;262;5.63049e-05;10 mA;
248.514;0.513;52.4;263;5.63965e-05;10 mA;
248.714;0.514526;52.6;264;5.62134e-05;10 mA;
248.914;0.516357;52.8;265;5.6366e-05;10 mA;
249.114;0.517883;53;266;5.65491e-05;10 mA;
249.314;0.519409;53.2;267;5.63354e-05;10 mA;
249.514;0.520935;53.4;268;5.6366e-05;10 mA;
249.714;0.522766;53.6;269;5.65186e-05;10 mA;
249.914;0.524292;53.8;270;5.6488e-05;10 mA;
250.114;0.525818;54;271;5.63354e-05;10 mA;
250.314;0.527649;54.2;272;5.63354e-05;10 mA;
250.514;0.529175;54.4;273;5.66101e-05;10 mA;
250.714;0.530701;54.6;274;5.66406e-05;10 mA;
250.914;0.532227;54.8;275;5.66101e-05;10 mA;
251.114;0.534058;55;276;5.65796e-05;10 mA;
251.314;0.535583;55.2;277;5.62134e-05;10 mA;
251.514;0.537415;55.4;278;5.6427e-05;10 mA;
251.714;0.53894;55.6;279;5.67017e-05;10 mA;
251.914;0.540466;55.8;280;5.67627e-05;10 mA;
252.114;0.542297;56;281;5.6366e-05;10 mA;
252.314;0.543823;56.2;282;5.63049e-05;10 mA;
252.514;0.545654;56.4;283;5.63354e-05;10 mA;
252.714;0.54718;56.6;284;5.63965e-05;10 mA;
252.914;0.549011;56.8;285;5.66406e-05;10 mA;
253.114;0.550537;57;286;5.6427e-05;10 mA;
253.314;0.552063;57.2;287;5.65491e-05;10 mA;
253.514;0.553894;57.4;288;5.61523e-05;10 mA;
253.714;0.55542;57.6;289;5.6427e-05;10 mA;
253.914;0.557251;57.8;290;5.69458e-05;10 mA;
254.114;0.559082;58;291;5.67627e-05;10 mA;
254.314;0.560608;58.2;292;5.68848e-05;10 mA;
254.514;0.562134;58.4;293;5.65491e-05;10 mA;
254.714;0.563965;58.6;294;5.6366e-05;10 mA;
254.914;0.565491;58.8;295;5.66406e-05;10 mA;
255.114;0.567322;59;296;5.63049e-05;10 mA;
255.314;0.569153;59.2;297;5.6366e-05;10 mA;
255.514;0.570679;59.4;298;5.67932e-05;10 mA;
255.714;0.57251;59.6;299;5.66101e-05;10 mA;
255.914;0.574036;59.8;300;5.66101e-05;10 mA;
256.114;0.575867;60;301;5.70068e-05;10 mA;
256.314;0.577698;60.2;302;5.6366e-05;10 mA;
256.514;0.579224;60.4;303;5.65796e-05;10 mA;
256.714;0.581055;60.6;304;5.66711e-05;10 mA;
256.914;0.582886;60.8;305;5.66406e-05;10 mA;
257.114;0.584412;61;306;5.63049e-05;10 mA;
257.314;0.586243;61.2;307;5.65186e-05;10 mA;
257.514;0.587769;61.4;308;5.66101e-05;10 mA;
257.714;0.5896;61.6;309;5.65796e-05;10 mA;
257.914;0.591431;61.8;310;5.62744e-05;10 mA;
258.114;0.592957;62;311;5.67017e-05;10 mA;
258.314;0.594788;62.2;312;5.6427e-05;10 mA;
258.514;0.596619;62.4;313;5.62744e-05;10 mA;
258.714;0.598145;62.6;314;5.65796e-05;10 mA;
258.914;0.599976;62.8;315;5.6488e-05;10 mA;
259.114;0.601807;63;316;5.63049e-05;10 mA;
259.314;0.603333;63.2;317;5.65186e-05;10 mA;
259.514;0.605164;63.4;318;5.6366e-05;10 mA;
259.714;0.606995;63.6;319;5.63965e-05;10 mA;
259.914;0.608826;63.8;320;5.6488e-05;10 mA;
260.114;0.610657;64;321;5.65796e-05;10 mA;
260.314;0.612183;64.2;322;5.65491e-05;10 mA;
260.514;0.614014;64.4;323;5.6488e-05;10 mA;
260.714;0.615845;64.6;324;5.67627e-05;10 mA;
260.914;0.617676;64.8;325;5.65491e-05;10 mA;
261.114;0.619202;65;326;5.65796e-05;10 mA;
261.314;0.621033;65.2;327;5.66101e-05;10 mA;
261.514;0.622864;65.4;328;5.67017e-05;10 mA;
261.714;0.624695;65.6;329;5.65796e-05;10 mA;
261.914;0.626526;65.8;330;5.6366e-05;10 mA;
262.114;0.628052;66;331;5.68542e-05;10 mA;
262.314;0.629883;66.2;332;5.63049e-05;10 mA;
262.514;0.631714;66.4;333;5.65186e-05;10 mA;
262.714;0.633545;66.6;334;5.65796e-05;10 mA;
262.914;0.635376;66.8;335;5.63354e-05;10 mA;
263.114;0.637207;67;336;5.60913e-05;10 mA;
263.314;0.638733;67.2;337;5.6366e-05;10 mA;
263.514;0.640564;67.4;338;5.65796e-05;10 mA;
263.714;0.642395;67.6;339;5.65796e-05;10 mA;
263.914;0.643921;67.8;340;5.65491e-05;10 mA;
264.114;0.645752;68;341;5.63965e-05;10 mA;
264.314;0.647583;68.2;342;5.6427e-05;10 mA;
264.514;0.649414;68.4;343;5.67322e-05;10 mA;
264.714;0.651245;68.6;344;5.60608e-05;10 mA;
264.914;0.653076;68.8;345;5.68237e-05;10 mA;
265.114;0.654907;69;346;5.67932e-05;10 mA;
265.314;0.656738;69.2;347;5.60608e-05;10 mA;
265.514;0.658264;69.4;348;5.65796e-05;10 mA;
265.714;0.6604;69.6;349;5.67322e-05;10 mA;
265.914;0.662231;69.8;350;5.67627e-05;10 mA;
266.114;0.663757;70;351;5.63354e-05;10 mA;
266.314;0.665588;70.2;352;5.6427e-05;10 mA;
266.514;0.667419;70.4;353;5.66711e-05;10 mA;
266.714;0.66925;70.6;354;5.64575e-05;10 mA;
266.914;0.671082;70.8;355;5.6366e-05;10 mA;
267.114;0.672913;71;356;5.68542e-05;10 mA;
267.314;0.674744;71.2;357;5.63965e-05;10 mA;
267.514;0.676575;71.4;358;5.6488e-05;10 mA;
267.714;0.678406;71.6;359;5.67322e-05;10 mA;
267.914;0.680237;71.8;360;5.6427e-05;10 mA;
268.114;0.681763;72;361;5.6366e-05;10 mA;
268.314;0.683594;72.2;362;5.65796e-05;10 mA;
268.514;0.685425;72.4;363;5.67932e-05;10 mA;
268.714;0.687256;72.6;364;5.66711e-05;10 mA;
268.914;0.689087;72.8;365;5.67322e-05;10 mA;
269.114;0.690918;73;366;5.68848e-05;10 mA;
269.314;0.692749;73.2;367;5.67322e-05;10 mA;
269.514;0.69458;73.4;368;5.67322e-05;10 mA;
269.714;0.696411;73.6;369;5.63965e-05;10 mA;
269.914;0.698242;73.8;370;5.64575e-05;10 mA;
270.114;0.700073;74;371;5.6488e-05;10 mA;
270.314;0.701599;74.2;372;5.67017e-05;10 mA;
270.514;0.703735;74.4;373;5.63965e-05;10 mA;
270.714;0.705566;74.6;374;5.6427e-05;10 mA;
270.914;0.707092;74.8;375;5.6427e-05;10 mA;
271.114;0.708923;75;376;5.65491e-05;10 mA;
271.314;0.710754;75.2;377;5.61829e-05;10 mA;
271.514;0.712585;75.4;378;5.63965e-05;10 mA;
271.714;0.714417;75.6;379;5.6488e-05;10 mA;
271.914;0.716248;75.8;380;5.64575e-05;10 mA;
272.114;0.718079;76;381;5.64575e-05;10 mA;
272.314;0.71991;76.2;382;5.6366e-05;10 mA;
272.514;0.721741;76.4;383;5.62134e-05;10 mA;
272.714;0.723572;76.6;384;5.67627e-05;10 mA;
272.914;0.725403;76.8;385;5.6427e-05;10 mA;
273.114;0.727234;77;386;5.66101e-05;10 mA;
273.314;0.72876;77.2;387;5.65491e-05;10 mA;
273.514;0.730591;77.4;388;5.65491e-05;10 mA;
273.714;0.732422;77.6;389;5.67017e-05;10 mA;
273.914;0.734253;77.8;390;5.65796e-05;10 mA;
274.114;0.736084;78;391;5.66101e-05;10 mA;
274.314;0.737915;78.2;392;5.69763e-05;10 mA;
274.514;0.739746;78.4;393;5.65491e-05;10 mA;
274.714;0.741577;78.6;394;5.63965e-05;10 mA;
274.914;0.743408;78.8;395;5.64575e-05;10 mA;
275.114;0.745239;79;396;5.64575e-05;10 mA;
275.314;0.74707;79.2;397;5.63354e-05;10 mA;
275.514;0.748901;79.4;398;5.65796e-05;10 mA;
275.714;0.750427;79.6;399;5.65186e-05;10 mA;
275.914;0.752258;79.8;400;5.6488e-05;10 mA;
276.114;0.754089;80;401;5.67627e-05;10 mA;
276.314;0.75592;80.2;402;5.69458e-05;10 mA;
276.514;0.757751;80.4;403;5.64575e-05;10 mA;
276.714;0.759583;80.6;404;5.63049e-05;10 mA;
276.914;0.761108;80.8;405;5.66101e-05;10 mA;
277.114;0.762939;81;406;5.6427e-05;10 mA;
277.314;0.764771;81.2;407;5.61829e-05;10 mA;
277.514;0.766602;81.4;408;5.65491e-05;10 mA;
277.714;0.768433;81.6;409;5.62744e-05;10 mA;
277.914;0.769958;81.8;410;5.64575e-05;10 mA;
278.114;0.77179;82;411;5.65796e-05;10 mA;
278.314;0.773621;82.2;412;5.67627e-05;10 mA;
278.514;0.775452;82.4;413;5.68848e-05;10 mA;
278.714;0.776978;82.6;414;5.65796e-05;10 mA;
278.914;0.778809;82.8;415;5.64575e-05;10 mA;
279.114;0.78064;83;416;5.6488e-05;10 mA;
279.314;0.782166;83.2;417;5.64575e-05;10 mA;
279.514;0.783691;83.4;418;5.6488e-05;10 mA;
279.714;0.785522;83.6;419;5.63965e-05;10 mA;
279.914;0.787048;83.8;420;5.63965e-05;10 mA;
280.114;0.788879;84;421;5.6427e-05;10 mA;
280.314;0.790405;84.2;422;5.65796e-05;10 mA;
280.514;0.792236;84.4;423;5.6427e-05;10 mA;
280.714;0.793762;84.6;424;5.62744e-05;10 mA;
280.914;0.795593;84.8;425;5.65796e-05;10 mA;
281.114;0.797119;85;426;5.66406e-05;10 mA;
281.314;0.79895;85.2;427;5.67017e-05;10 mA;
281.514;0.800476;85.4;428;5.62439e-05;10 mA;
281.714;0.802002;85.6;429;5.67017e-05;10 mA;
281.914;0.803833;85.8;430;5.6488e-05;10 mA;
282.114;0.805359;86;431;5.68237e-05;10 mA;
282.314;0.806885;86.2;432;5.6366e-05;10 mA;
282.514;0.808411;86.4;433;5.69153e-05;10 mA;
282.714;0.810242;86.6;434;5.63965e-05;10 mA;
282.914;0.811768;86.8;435;5.67627e-05;10 mA;
283.114;0.813293;87;436;5.66101e-05;10 mA;
283.314;0.814819;87.2;437;5.68542e-05;10 mA;
283.514;0.816345;87.4;438;5.63354e-05;10 mA;
283.714;0.817871;87.6;439;5.63965e-05;10 mA;
283.914;0.819397;87.8;440;5.67322e-05;10 mA;
284.114;0.820923;88;441;5.66406e-05;10 mA;
284.314;0.822449;88.2;442;5.68237e-05;10 mA;
284.514;0.823975;88.4;443;5.63965e-05;10 mA;
284.714;0.8255;88.6;444;5.67017e-05;10 mA;
284.914;0.827026;88.8;445;5.64575e-05;10 mA;
285.114;0.828552;89;446;5.65796e-05;10 mA;
285.314;0.830078;89.2;447;5.63354e-05;10 mA;
285.514;0.831299;89.4;448;5.65491e-05;10 mA;
285.714;0.832825;89.6;449;5.6488e-05;10 mA;
285.914;0.834045;89.8;450;5.68237e-05;10 mA;
286.114;0.835571;90;451;5.64575e-05;10 mA;
286.314;0.836792;90.2;452;5.6366e-05;10 mA;
286.514;0.838318;90.4;453;5.66406e-05;10 mA;
286.714;0.839539;90.6;454;5.65796e-05;10 mA;
286.914;0.841064;90.8;455;5.68542e-05;10 mA;
287.114;0.842285;91;456;5.67322e-05;10 mA;
287.314;0.843506;91.2;457;5.63354e-05;10 mA;
287.514;0.844727;91.4;458;5.66101e-05;10 mA;
287.714;0.846252;91.6;459;5.67932e-05;10 mA;
287.914;0.847473;91.8;460;5.66711e-05;10 mA;
288.114;0.848694;92;461;5.67017e-05;10 mA;
288.314;0.849915;92.2;462;5.67322e-05;10 mA;
288.514;0.851135;92.4;463;5.68542e-05;10 mA;WE(1).Potential > 0,85 V
288.714;0.852356;92.6;464;5.65796e-05;10 mA;WE(1).Potential > 0,85 V
288.914;0.853577;92.8;465;5.63965e-05;10 mA;WE(1).Potential > 0,85 V
289.114;0.854797;93;466;5.65796e-05;10 mA;WE(1).Potential > 0,85 V