File: CDMXene2-1Ag-1CARGA.txt
Time (s);WE(1).Potential (V);Corrected time (s);Index;WE(1).Current (A);Current range;Cutoffs
2.46021;0.465607;0;1;1.76697e-05;10 mA;
2.66021;0.468414;0.2;2;1.60217e-05;10 mA;
2.86021;0.470825;0.4;3;1.68762e-05;10 mA;
3.06021;0.472992;0.6;4;1.37329e-05;10 mA;
3.26021;0.475067;0.8;5;1.14441e-05;10 mA;
3.46021;0.47702;1;6;1.60217e-05;10 mA;
3.66021;0.478851;1.2;7;1.43127e-05;10 mA;
3.86021;0.480652;1.4;8;1.67542e-05;10 mA;
4.06021;0.482391;1.6;9;1.20544e-05;10 mA;
4.26021;0.484039;1.8;10;1.37024e-05;10 mA;
4.46021;0.485626;2;11;1.75476e-05;10 mA;
4.66021;0.487244;2.2;12;1.44043e-05;10 mA;
4.86021;0.4888;2.4;13;1.45874e-05;10 mA;
5.06021;0.490295;2.6;14;1.4679e-05;10 mA;
5.26021;0.491791;2.8;15;1.66016e-05;10 mA;
5.46021;0.493286;3;16;1.43433e-05;10 mA;
5.66021;0.494751;3.2;17;1.43127e-05;10 mA;
5.86021;0.496185;3.4;18;1.46484e-05;10 mA;
6.06021;0.497589;3.6;19;1.43738e-05;10 mA;
6.26021;0.498993;3.8;20;1.474e-05;10 mA;
6.46021;0.500183;4;21;1.66016e-05;10 mA;
6.66021;0.501709;4.2;22;1.71814e-05;10 mA;
6.86021;0.50293;4.4;23;1.45874e-05;10 mA;
7.06021;0.50415;4.6;24;1.43127e-05;10 mA;
7.26021;0.505676;4.8;25;1.46179e-05;10 mA;
7.46021;0.506897;5;26;1.44348e-05;10 mA;
7.66021;0.508118;5.2;27;1.59607e-05;10 mA;
7.86021;0.509338;5.4;28;1.77917e-05;10 mA;
8.06021;0.510864;5.6;29;1.48926e-05;10 mA;
8.26021;0.512085;5.8;30;1.48315e-05;10 mA;
8.46021;0.513306;6;31;1.55334e-05;10 mA;
8.66021;0.514526;6.2;32;1.28479e-05;10 mA;
8.86021;0.515442;6.4;33;1.76392e-05;10 mA;
9.06021;0.516663;6.6;34;1.52283e-05;10 mA;
9.26021;0.517883;6.8;35;1.29089e-05;10 mA;
9.46021;0.519104;7;36;1.77307e-05;10 mA;
9.66021;0.520325;7.2;37;1.56555e-05;10 mA;
9.86021;0.52124;7.4;38;1.28174e-05;10 mA;
10.0602;0.522461;7.6;39;1.474e-05;10 mA;
10.2602;0.523376;7.8;40;1.75476e-05;10 mA;
10.4602;0.524597;8;41;1.76697e-05;10 mA;
10.6602;0.525818;8.2;42;1.29395e-05;10 mA;
10.8602;0.526733;8.4;43;1.51062e-05;10 mA;
11.0602;0.527954;8.6;44;1.50146e-05;10 mA;
11.2602;0.52887;8.8;45;1.55029e-05;10 mA;
11.4602;0.53009;9;46;1.3092e-05;10 mA;
11.6602;0.531006;9.2;47;1.38245e-05;10 mA;
11.8602;0.532227;9.4;48;1.34277e-05;10 mA;
12.0602;0.533142;9.6;49;1.69678e-05;10 mA;
12.2602;0.534363;9.8;50;1.44653e-05;10 mA;
12.4602;0.535278;10;51;1.66321e-05;10 mA;
12.6602;0.536194;10.2;52;1.55029e-05;10 mA;
12.8602;0.537415;10.4;53;1.76392e-05;10 mA;
13.0602;0.53833;10.6;54;1.49231e-05;10 mA;
13.2602;0.539551;10.8;55;1.52588e-05;10 mA;
13.4602;0.540466;11;56;1.59302e-05;10 mA;
13.6602;0.541382;11.2;57;1.70593e-05;10 mA;
13.8602;0.542603;11.4;58;1.58997e-05;10 mA;
14.0602;0.543518;11.6;59;1.57471e-05;10 mA;
14.2602;0.544434;11.8;60;1.64795e-05;10 mA;
14.4602;0.545349;12;61;1.67847e-05;10 mA;
14.6602;0.54657;12.2;62;1.5686e-05;10 mA;
14.8602;0.547485;12.4;63;1.4679e-05;10 mA;
15.0602;0.548401;12.6;64;1.44043e-05;10 mA;
15.2602;0.549316;12.8;65;1.41296e-05;10 mA;
15.4602;0.550232;13;66;1.58691e-05;10 mA;
15.6602;0.551147;13.2;67;1.7334e-05;10 mA;
15.8602;0.552368;13.4;68;1.49841e-05;10 mA;
16.0602;0.553284;13.6;69;1.76392e-05;10 mA;
16.2602;0.554199;13.8;70;1.31836e-05;10 mA;
16.4602;0.555115;14;71;1.74561e-05;10 mA;
16.6602;0.55603;14.2;72;1.66016e-05;10 mA;
16.8602;0.556946;14.4;73;1.71814e-05;10 mA;
17.0602;0.557861;14.6;74;1.45569e-05;10 mA;
17.2602;0.558777;14.8;75;1.50146e-05;10 mA;
17.4602;0.559692;15;76;1.54724e-05;10 mA;
17.6602;0.560913;15.2;77;1.50146e-05;10 mA;
17.8602;0.561829;15.4;78;1.80054e-05;10 mA;
18.0602;0.562744;15.6;79;1.4679e-05;10 mA;
18.2602;0.56366;15.8;80;1.69678e-05;10 mA;
18.4602;0.564575;16;81;1.72729e-05;10 mA;
18.6602;0.565491;16.2;82;1.66931e-05;10 mA;
18.8602;0.566406;16.4;83;1.43433e-05;10 mA;
19.0602;0.567322;16.6;84;1.54114e-05;10 mA;
19.2602;0.568237;16.8;85;1.38245e-05;10 mA;
19.4602;0.569153;17;86;1.32751e-05;10 mA;
19.6602;0.570068;17.2;87;1.66321e-05;10 mA;
19.8602;0.570679;17.4;88;1.57166e-05;10 mA;
20.0602;0.571594;17.6;89;1.62354e-05;10 mA;
20.2602;0.57251;17.8;90;1.71509e-05;10 mA;
20.4602;0.573425;18;91;1.75171e-05;10 mA;
20.6602;0.574341;18.2;92;1.4801e-05;10 mA;
20.8602;0.575256;18.4;93;1.54114e-05;10 mA;
21.0602;0.576172;18.6;94;1.3855e-05;10 mA;
21.2602;0.577087;18.8;95;1.36414e-05;10 mA;
21.4602;0.578003;19;96;1.61133e-05;10 mA;
21.6602;0.578918;19.2;97;1.5625e-05;10 mA;
21.8602;0.579834;19.4;98;1.33362e-05;10 mA;
22.0602;0.58075;19.6;99;1.58386e-05;10 mA;
22.2602;0.581665;19.8;100;1.38855e-05;10 mA;
22.4602;0.582275;20;101;1.474e-05;10 mA;
22.6602;0.583191;20.2;102;1.66626e-05;10 mA;
22.8602;0.584106;20.4;103;1.41296e-05;10 mA;
23.0602;0.585022;20.6;104;1.53503e-05;10 mA;
23.2602;0.5859375;20.8;105;1.67236e-05;10 mA;
23.4602;0.586853;21;106;1.50757e-05;10 mA;
23.6602;0.587769;21.2;107;1.46484e-05;10 mA;
23.8602;0.588379;21.4;108;1.72424e-05;10 mA;
24.0602;0.589294;21.6;109;1.69373e-05;10 mA;
24.2602;0.59021;21.8;110;1.7334e-05;10 mA;
24.4602;0.591125;22;111;1.3855e-05;10 mA;
24.6602;0.592041;22.2;112;1.63574e-05;10 mA;
24.8602;0.592651;22.4;113;1.69373e-05;10 mA;
25.0602;0.593567;22.6;114;1.52588e-05;10 mA;
25.2602;0.594482;22.8;115;1.69678e-05;10 mA;
25.4602;0.595398;23;116;1.5625e-05;10 mA;
25.6602;0.596313;23.2;117;1.68762e-05;10 mA;
25.8602;0.596924;23.4;118;1.57471e-05;10 mA;
26.0602;0.597839;23.6;119;1.69067e-05;10 mA;
26.2602;0.598755;23.8;120;1.58691e-05;10 mA;
26.4602;0.59967;24;121;1.36719e-05;10 mA;
26.6602;0.600281;24.2;122;1.66016e-05;10 mA;
26.8602;0.601196;24.4;123;1.66321e-05;10 mA;
27.0602;0.602112;24.6;124;1.41602e-05;10 mA;
27.2602;0.602722;24.8;125;1.7334e-05;10 mA;
27.4602;0.603638;25;126;1.4801e-05;10 mA;
27.6602;0.604553;25.2;127;1.52588e-05;10 mA;
27.8602;0.605164;25.4;128;1.71509e-05;10 mA;
28.0602;0.606079;25.6;129;1.55334e-05;10 mA;
28.2602;0.606995;25.8;130;1.59607e-05;10 mA;
28.4602;0.607605;26;131;1.67847e-05;10 mA;
28.6602;0.608521;26.2;132;1.72424e-05;10 mA;
28.8602;0.609436;26.4;133;1.7334e-05;10 mA;
29.0602;0.610352;26.6;134;1.71204e-05;10 mA;
29.2602;0.610962;26.8;135;1.58081e-05;10 mA;
29.4602;0.611877;27;136;1.54724e-05;10 mA;
29.6602;0.612488;27.2;137;1.52893e-05;10 mA;
29.8602;0.613403;27.4;138;1.51062e-05;10 mA;
30.0602;0.614319;27.6;139;1.47095e-05;10 mA;
30.2602;0.614929;27.8;140;1.37634e-05;10 mA;
30.4602;0.615845;28;141;1.42517e-05;10 mA;
30.6602;0.616455;28.2;142;1.40686e-05;10 mA;
30.8602;0.617371;28.4;143;1.45569e-05;10 mA;
31.0602;0.617981;28.6;144;1.47705e-05;10 mA;
31.2602;0.618896;28.8;145;1.52893e-05;10 mA;
31.4602;0.619507;29;146;1.71814e-05;10 mA;
31.6602;0.620422;29.2;147;1.58386e-05;10 mA;
31.8602;0.621338;29.4;148;1.69067e-05;10 mA;
32.0602;0.621948;29.6;149;1.68152e-05;10 mA;
32.2602;0.622864;29.8;150;1.5625e-05;10 mA;
32.4602;0.623474;30;151;1.75476e-05;10 mA;
32.6602;0.62439;30.2;152;1.41296e-05;10 mA;
32.8602;0.625305;30.4;153;1.37939e-05;10 mA;
33.0602;0.625916;30.6;154;1.71509e-05;10 mA;
33.2602;0.626526;30.8;155;1.3916e-05;10 mA;
33.4602;0.627441;31;156;1.51672e-05;10 mA;
33.6602;0.628052;31.2;157;1.6449e-05;10 mA;
33.8602;0.628967;31.4;158;1.66931e-05;10 mA;
34.0602;0.629883;31.6;159;1.52588e-05;10 mA;
34.2602;0.630493;31.8;160;1.62354e-05;10 mA;
34.4602;0.631104;32;161;1.55029e-05;10 mA;
34.6602;0.632019;32.2;162;1.73035e-05;10 mA;
34.8602;0.632629;32.4;163;1.48621e-05;10 mA;
35.0602;0.633545;32.6;164;1.66931e-05;10 mA;
35.2602;0.634155;32.8;165;1.72729e-05;10 mA;
35.4602;0.635071;33;166;1.58691e-05;10 mA;
35.6602;0.635681;33.2;167;1.72729e-05;10 mA;
35.8602;0.636597;33.4;168;1.54724e-05;10 mA;
36.0602;0.637207;33.6;169;1.49536e-05;10 mA;
36.2602;0.637817;33.8;170;1.64795e-05;10 mA;
36.4602;0.638733;34;171;1.60828e-05;10 mA;
36.6602;0.639343;34.2;172;1.50757e-05;10 mA;
36.8602;0.640259;34.4;173;1.35193e-05;10 mA;
37.0602;0.640869;34.6;174;1.66321e-05;10 mA;
37.2602;0.641479;34.8;175;1.33057e-05;10 mA;
37.4602;0.642395;35;176;1.53198e-05;10 mA;
37.6602;0.643005;35.2;177;1.32751e-05;10 mA;
37.8602;0.643616;35.4;178;1.63574e-05;10 mA;
38.0602;0.644531;35.6;179;1.33362e-05;10 mA;
38.2602;0.645142;35.8;180;1.36414e-05;10 mA;
38.4602;0.645752;36;181;1.33667e-05;10 mA;
38.6602;0.646667;36.2;182;1.3916e-05;10 mA;
38.8602;0.647278;36.4;183;1.53809e-05;10 mA;
39.0602;0.647888;36.6;184;1.474e-05;10 mA;
39.2602;0.648804;36.8;185;1.67847e-05;10 mA;
39.4602;0.649414;37;186;1.71204e-05;10 mA;
39.6602;0.650024;37.2;187;1.32751e-05;10 mA;
39.8602;0.650635;37.4;188;1.40076e-05;10 mA;
40.0602;0.65155;37.6;189;1.77002e-05;10 mA;
40.2602;0.652161;37.8;190;1.54724e-05;10 mA;
40.4602;0.652771;38;191;1.68762e-05;10 mA;
40.6602;0.653687;38.2;192;1.52588e-05;10 mA;
40.8602;0.654297;38.4;193;1.80054e-05;10 mA;
41.0602;0.654907;38.6;194;1.61133e-05;10 mA;
41.2602;0.655823;38.8;195;1.52588e-05;10 mA;
41.4602;0.656433;39;196;1.57776e-05;10 mA;
41.6602;0.657043;39.2;197;1.5686e-05;10 mA;
41.8602;0.657959;39.4;198;1.55029e-05;10 mA;
42.0602;0.658569;39.6;199;1.55334e-05;10 mA;
42.2602;0.65918;39.8;200;1.44958e-05;10 mA;
42.4602;0.65979;40;201;1.59302e-05;10 mA;
42.6602;0.660706;40.2;202;1.66016e-05;10 mA;
42.8602;0.661316;40.4;203;1.63269e-05;10 mA;
43.0602;0.661926;40.6;204;1.51672e-05;10 mA;
43.2602;0.662537;40.8;205;1.65405e-05;10 mA;
43.4602;0.663147;41;206;1.57471e-05;10 mA;
43.6602;0.6640625;41.2;207;1.3855e-05;10 mA;
43.8602;0.664673;41.4;208;1.65405e-05;10 mA;
44.0602;0.665283;41.6;209;1.67542e-05;10 mA;
44.2602;0.666199;41.8;210;1.52893e-05;10 mA;
44.4602;0.666809;42;211;1.53503e-05;10 mA;
44.6602;0.667419;42.2;212;1.68152e-05;10 mA;
44.8602;0.66803;42.4;213;1.76086e-05;10 mA;
45.0602;0.66864;42.6;214;1.54114e-05;10 mA;
45.2602;0.669556;42.8;215;1.30005e-05;10 mA;
45.4602;0.670166;43;216;1.31836e-05;10 mA;
45.6602;0.670776;43.2;217;1.61438e-05;10 mA;
45.8602;0.671387;43.4;218;1.39771e-05;10 mA;
46.0602;0.671997;43.6;219;1.54114e-05;10 mA;
46.2602;0.672913;43.8;220;1.63879e-05;10 mA;
46.4602;0.673523;44;221;1.43738e-05;10 mA;
46.6602;0.674133;44.2;222;1.60522e-05;10 mA;
46.8602;0.674744;44.4;223;1.34888e-05;10 mA;
47.0602;0.675354;44.6;224;1.36414e-05;10 mA;
47.2602;0.675964;44.8;225;1.70593e-05;10 mA;
47.4602;0.676575;45;226;1.3855e-05;10 mA;
47.6602;0.67749;45.2;227;1.71814e-05;10 mA;
47.8602;0.678101;45.4;228;1.63574e-05;10 mA;
48.0602;0.678711;45.6;229;1.72729e-05;10 mA;
48.2602;0.679321;45.8;230;1.60217e-05;10 mA;
48.4602;0.679932;46;231;1.62964e-05;10 mA;
48.6602;0.680542;46.2;232;1.68762e-05;10 mA;
48.8602;0.681152;46.4;233;1.54114e-05;10 mA;
49.0602;0.681763;46.6;234;1.4801e-05;10 mA;
49.2602;0.682678;46.8;235;1.70898e-05;10 mA;
49.4602;0.683289;47;236;1.49536e-05;10 mA;
49.6602;0.683899;47.2;237;1.3031e-05;10 mA;
49.8602;0.684509;47.4;238;1.40991e-05;10 mA;
50.0602;0.68512;47.6;239;1.67542e-05;10 mA;
50.2602;0.68573;47.8;240;1.57471e-05;10 mA;
50.4602;0.68634;48;241;1.44348e-05;10 mA;
50.6602;0.686951;48.2;242;1.32446e-05;10 mA;
50.8602;0.687561;48.4;243;1.64795e-05;10 mA;
51.0602;0.688171;48.6;244;1.45569e-05;10 mA;
51.2602;0.688782;48.8;245;1.45569e-05;10 mA;
51.4602;0.689392;49;246;1.47095e-05;10 mA;
51.6602;0.690002;49.2;247;1.45569e-05;10 mA;
51.8602;0.690613;49.4;248;1.65405e-05;10 mA;
52.0602;0.691223;49.6;249;1.48926e-05;10 mA;
52.2602;0.691833;49.8;250;1.62048e-05;10 mA;
52.4602;0.692444;50;251;1.3031e-05;10 mA;
52.6602;0.693054;50.2;252;1.68152e-05;10 mA;
52.8602;0.693665;50.4;253;1.51062e-05;10 mA;
53.0602;0.694275;50.6;254;1.70898e-05;10 mA;
53.2602;0.694885;50.8;255;1.40076e-05;10 mA;
53.4602;0.695496;51;256;1.67236e-05;10 mA;
53.6602;0.696106;51.2;257;1.4801e-05;10 mA;
53.8602;0.696716;51.4;258;1.46484e-05;10 mA;
54.0602;0.697327;51.6;259;1.40991e-05;10 mA;
54.2602;0.697937;51.8;260;1.70593e-05;10 mA;
54.4602;0.698547;52;261;1.61743e-05;10 mA;
54.6602;0.699158;52.2;262;1.35498e-05;10 mA;
54.8602;0.699768;52.4;263;1.61438e-05;10 mA;
55.0602;0.700073;52.6;264;1.35498e-05;10 mA;
55.2602;0.700989;52.8;265;1.49231e-05;10 mA;
55.4602;0.701599;53;266;1.32751e-05;10 mA;
55.6602;0.702209;53.2;267;1.4679e-05;10 mA;
55.8602;0.70282;53.4;268;1.50757e-05;10 mA;
56.0602;0.70343;53.6;269;1.48926e-05;10 mA;
56.2602;0.703735;53.8;270;1.72424e-05;10 mA;
56.4602;0.704346;54;271;1.55945e-05;10 mA;
56.6602;0.704956;54.2;272;1.46179e-05;10 mA;
56.8602;0.705566;54.4;273;1.72424e-05;10 mA;
57.0602;0.706177;54.6;274;1.74255e-05;10 mA;
57.2602;0.706787;54.8;275;1.51367e-05;10 mA;
57.4602;0.707397;55;276;1.72119e-05;10 mA;
57.6602;0.708008;55.2;277;1.67847e-05;10 mA;
57.8602;0.708618;55.4;278;1.66321e-05;10 mA;
58.0602;0.709229;55.6;279;1.62354e-05;10 mA;
58.2602;0.709839;55.8;280;1.58997e-05;10 mA;
58.4602;0.710449;56;281;1.63269e-05;10 mA;
58.6602;0.71106;56.2;282;1.61133e-05;10 mA;
58.8602;0.711365;56.4;283;1.51672e-05;10 mA;
59.0602;0.711975;56.6;284;1.56555e-05;10 mA;
59.2602;0.712585;56.8;285;1.3855e-05;10 mA;
59.4602;0.713196;57;286;1.37024e-05;10 mA;
59.6602;0.713806;57.2;287;1.32751e-05;10 mA;
59.8602;0.714111;57.4;288;1.57471e-05;10 mA;
60.0602;0.714722;57.6;289;1.50146e-05;10 mA;
60.2602;0.715332;57.8;290;1.297e-05;10 mA;
60.4602;0.715942;58;291;1.29089e-05;10 mA;
60.6602;0.716248;58.2;292;1.44958e-05;10 mA;
60.8602;0.716858;58.4;293;1.59607e-05;10 mA;
61.0602;0.717468;58.6;294;1.50452e-05;10 mA;
61.2602;0.718079;58.8;295;1.77002e-05;10 mA;
61.4602;0.718384;59;296;1.64795e-05;10 mA;
61.6602;0.718994;59.2;297;1.27563e-05;10 mA;
61.8602;0.719299;59.4;298;1.74561e-05;10 mA;
62.0602;0.71991;59.6;299;1.34888e-05;10 mA;
62.2602;0.72052;59.8;300;1.28174e-05;10 mA;
62.4602;0.72113;60;301;1.297e-05;10 mA;
62.6602;0.721436;60.2;302;1.3855e-05;10 mA;
62.8602;0.722046;60.4;303;1.59912e-05;10 mA;
63.0602;0.722656;60.6;304;1.76086e-05;10 mA;
63.2602;0.722961;60.8;305;1.41602e-05;10 mA;
63.4602;0.723572;61;306;1.40076e-05;10 mA;
63.6602;0.724182;61.2;307;1.5625e-05;10 mA;
63.8602;0.724487;61.4;308;1.5625e-05;10 mA;
64.0602;0.725098;61.6;309;1.48926e-05;10 mA;
64.2602;0.725708;61.8;310;1.62659e-05;10 mA;
64.4602;0.726318;62;311;1.53503e-05;10 mA;
64.6602;0.726624;62.2;312;1.6571e-05;10 mA;
64.8602;0.727234;62.4;313;1.31226e-05;10 mA;
65.0602;0.727844;62.6;314;1.48315e-05;10 mA;
65.2602;0.728149;62.8;315;1.66321e-05;10 mA;
65.4602;0.72876;63;316;1.43433e-05;10 mA;
65.6602;0.72937;63.2;317;1.53809e-05;10 mA;
65.8602;0.729675;63.4;318;1.71204e-05;10 mA;
66.0602;0.730286;63.6;319;1.66016e-05;10 mA;
66.2602;0.730591;63.8;320;1.62659e-05;10 mA;
66.4602;0.731201;64;321;1.67847e-05;10 mA;
66.6602;0.731812;64.2;322;1.37329e-05;10 mA;
66.8602;0.732117;64.4;323;1.62964e-05;10 mA;
67.0602;0.732727;64.6;324;1.5564e-05;10 mA;
67.2602;0.733032;64.8;325;1.53503e-05;10 mA;
67.4602;0.733643;65;326;1.52283e-05;10 mA;
67.6602;0.734253;65.2;327;1.39771e-05;10 mA;
67.8602;0.734558;65.4;328;1.5564e-05;10 mA;
68.0602;0.735168;65.6;329;1.69678e-05;10 mA;
68.2602;0.735474;65.8;330;1.51367e-05;10 mA;
68.4602;0.736084;66;331;1.59607e-05;10 mA;
68.6602;0.736694;66.2;332;1.59607e-05;10 mA;
68.8602;0.737;66.4;333;1.43433e-05;10 mA;
69.0602;0.737305;66.6;334;1.66016e-05;10 mA;
69.2602;0.737915;66.8;335;1.53809e-05;10 mA;
69.4602;0.738525;67;336;1.54724e-05;10 mA;
69.6602;0.738831;67.2;337;1.66016e-05;10 mA;
69.8602;0.739136;67.4;338;1.62964e-05;10 mA;
70.0602;0.739746;67.6;339;1.63269e-05;10 mA;
70.2602;0.740356;67.8;340;1.59607e-05;10 mA;
70.4602;0.740662;68;341;1.53198e-05;10 mA;
70.6602;0.740967;68.2;342;1.60828e-05;10 mA;
70.8602;0.741577;68.4;343;1.58081e-05;10 mA;
71.0602;0.741882;68.6;344;1.45874e-05;10 mA;
71.2602;0.742493;68.8;345;1.44653e-05;10 mA;
71.4602;0.742798;69;346;1.55334e-05;10 mA;
71.6602;0.743408;69.2;347;1.67847e-05;10 mA;
71.8602;0.743713;69.4;348;1.52893e-05;10 mA;
72.0602;0.744324;69.6;349;1.38245e-05;10 mA;
72.2602;0.744629;69.8;350;1.60828e-05;10 mA;
72.4602;0.744934;70;351;1.43738e-05;10 mA;
72.6602;0.745544;70.2;352;1.44043e-05;10 mA;
72.8602;0.746155;70.4;353;1.40991e-05;10 mA;
73.0602;0.74646;70.6;354;1.57471e-05;10 mA;
73.2602;0.746765;70.8;355;1.54419e-05;10 mA;
73.4602;0.747375;71;356;1.50452e-05;10 mA;
73.6602;0.747681;71.2;357;1.49231e-05;10 mA;
73.8602;0.748291;71.4;358;1.50757e-05;10 mA;
74.0602;0.748596;71.6;359;1.41296e-05;10 mA;
74.2602;0.748901;71.8;360;1.66626e-05;10 mA;
74.4602;0.749512;72;361;1.57166e-05;10 mA;
74.6602;0.749817;72.2;362;1.62659e-05;10 mA;
74.8602;0.750122;72.4;363;1.39771e-05;10 mA;
75.0602;0.750732;72.6;364;1.67847e-05;10 mA;
75.2602;0.751038;72.8;365;1.474e-05;10 mA;
75.4602;0.751343;73;366;1.68457e-05;10 mA;
75.6602;0.751953;73.2;367;1.37329e-05;10 mA;
75.8602;0.752258;73.4;368;1.48926e-05;10 mA;
76.0602;0.752563;73.6;369;1.45874e-05;10 mA;
76.2602;0.753174;73.8;370;1.60522e-05;10 mA;
76.4602;0.753479;74;371;1.57166e-05;10 mA;
76.6602;0.753784;74.2;372;1.44958e-05;10 mA;
76.8602;0.754395;74.4;373;1.50757e-05;10 mA;
77.0602;0.7547;74.6;374;1.55334e-05;10 mA;
77.2602;0.755005;74.8;375;1.63879e-05;10 mA;
77.4602;0.75531;75;376;1.44348e-05;10 mA;
77.6602;0.75592;75.2;377;1.50757e-05;10 mA;
77.8602;0.756226;75.4;378;1.61133e-05;10 mA;
78.0602;0.756836;75.6;379;1.55334e-05;10 mA;
78.2602;0.757141;75.8;380;1.45569e-05;10 mA;
78.4602;0.757751;76;381;1.474e-05;10 mA;
78.6602;0.758057;76.2;382;1.48315e-05;10 mA;
78.8602;0.758362;76.4;383;1.6449e-05;10 mA;
79.0602;0.758972;76.6;384;1.4801e-05;10 mA;
79.2602;0.759277;76.8;385;1.52283e-05;10 mA;
79.4602;0.759583;77;386;1.58386e-05;10 mA;
79.6602;0.759888;77.2;387;1.51672e-05;10 mA;
79.8602;0.760498;77.4;388;1.43433e-05;10 mA;
80.0602;0.760803;77.6;389;1.53503e-05;10 mA;
80.2602;0.761414;77.8;390;1.4679e-05;10 mA;
80.4602;0.761719;78;391;1.6449e-05;10 mA;
80.6602;0.762024;78.2;392;1.46179e-05;10 mA;
80.8602;0.762634;78.4;393;1.52893e-05;10 mA;
81.0602;0.762939;78.6;394;1.47095e-05;10 mA;
81.2602;0.76355;78.8;395;1.37329e-05;10 mA;
81.4602;0.763855;79;396;1.6449e-05;10 mA;
81.6602;0.76416;79.2;397;1.40686e-05;10 mA;
81.8602;0.764465;79.4;398;1.53809e-05;10 mA;
82.0602;0.765076;79.6;399;1.33057e-05;10 mA;
82.2602;0.765381;79.8;400;1.38245e-05;10 mA;
82.4602;0.765991;80;401;1.64185e-05;10 mA;
82.6602;0.766296;80.2;402;1.76697e-05;10 mA;
82.8602;0.766602;80.4;403;1.51672e-05;10 mA;
83.0602;0.767212;80.6;404;1.60217e-05;10 mA;
83.2602;0.767517;80.8;405;1.52893e-05;10 mA;
83.4602;0.767822;81;406;1.40686e-05;10 mA;
83.6602;0.768433;81.2;407;1.36108e-05;10 mA;
83.8602;0.768738;81.4;408;1.35803e-05;10 mA;
84.0602;0.769348;81.6;409;1.87988e-05;10 mA;
84.2602;0.769653;81.8;410;1.45874e-05;10 mA;
84.4602;0.769958;82;411;1.40991e-05;10 mA;
84.6602;0.770264;82.2;412;1.27869e-05;10 mA;
84.8602;0.770874;82.4;413;1.41602e-05;10 mA;
85.0602;0.771179;82.6;414;1.79138e-05;10 mA;
85.2602;0.771484;82.8;415;1.78833e-05;10 mA;
85.4602;0.77179;83;416;1.47095e-05;10 mA;
85.6602;0.772095;83.2;417;1.72729e-05;10 mA;
85.8602;0.772705;83.4;418;1.34277e-05;10 mA;
86.0602;0.77301;83.6;419;1.6571e-05;10 mA;
86.2602;0.773315;83.8;420;1.50146e-05;10 mA;
86.4602;0.773621;84;421;1.49841e-05;10 mA;
86.6602;0.774231;84.2;422;1.36414e-05;10 mA;
86.8602;0.774536;84.4;423;1.67236e-05;10 mA;
87.0602;0.774841;84.6;424;1.74255e-05;10 mA;
87.2602;0.775146;84.8;425;1.53503e-05;10 mA;
87.4602;0.775452;85;426;1.55334e-05;10 mA;
87.6602;0.775757;85.2;427;1.58997e-05;10 mA;
87.8602;0.776367;85.4;428;1.63269e-05;10 mA;
88.0602;0.776672;85.6;429;1.52588e-05;10 mA;
88.2602;0.776978;85.8;430;1.45569e-05;10 mA;
88.4602;0.777283;86;431;1.68457e-05;10 mA;
88.6602;0.777588;86.2;432;1.63269e-05;10 mA;
88.8602;0.778198;86.4;433;1.58386e-05;10 mA;
89.0602;0.778503;86.6;434;1.73035e-05;10 mA;
89.2602;0.778809;86.8;435;1.71509e-05;10 mA;
89.4602;0.779114;87;436;1.73035e-05;10 mA;
89.6602;0.779419;87.2;437;1.39771e-05;10 mA;
89.8602;0.779724;87.4;438;1.70288e-05;10 mA;
90.0602;0.780029;87.6;439;1.52588e-05;10 mA;
90.2602;0.78064;87.8;440;1.40381e-05;10 mA;
90.4602;0.780945;88;441;1.77002e-05;10 mA;
90.6602;0.78125;88.2;442;1.69983e-05;10 mA;
90.8602;0.781555;88.4;443;1.75171e-05;10 mA;
91.0602;0.78186;88.6;444;1.70898e-05;10 mA;
91.2602;0.782166;88.8;445;1.7395e-05;10 mA;
91.4602;0.782471;89;446;1.40686e-05;10 mA;
91.6602;0.782776;89.2;447;1.79138e-05;10 mA;
91.8602;0.783081;89.4;448;1.71814e-05;10 mA;
92.0602;0.783691;89.6;449;1.50757e-05;10 mA;
92.2602;0.783997;89.8;450;1.67236e-05;10 mA;
92.4602;0.784302;90;451;1.47095e-05;10 mA;
92.6602;0.784607;90.2;452;1.58997e-05;10 mA;
92.8602;0.784912;90.4;453;1.59912e-05;10 mA;
93.0602;0.785217;90.6;454;1.34583e-05;10 mA;
93.2602;0.785522;90.8;455;1.55334e-05;10 mA;
93.4602;0.785828;91;456;1.75476e-05;10 mA;
93.6602;0.786133;91.2;457;1.66321e-05;10 mA;
93.8602;0.786743;91.4;458;1.58081e-05;10 mA;
94.0602;0.787048;91.6;459;1.58997e-05;10 mA;
94.2602;0.787354;91.8;460;1.62659e-05;10 mA;
94.4602;0.787659;92;461;1.58997e-05;10 mA;
94.6602;0.787964;92.2;462;1.55334e-05;10 mA;
94.8602;0.788269;92.4;463;1.48621e-05;10 mA;
95.0602;0.788574;92.6;464;1.69373e-05;10 mA;
95.2602;0.788879;92.8;465;1.60828e-05;10 mA;
95.4602;0.789185;93;466;1.62048e-05;10 mA;
95.6602;0.78949;93.2;467;1.40991e-05;10 mA;
95.8602;0.789795;93.4;468;1.51978e-05;10 mA;
96.0602;0.7901;93.6;469;1.42212e-05;10 mA;
96.2602;0.790405;93.8;470;1.31226e-05;10 mA;
96.4602;0.79071;94;471;1.58386e-05;10 mA;
96.6602;0.791016;94.2;472;1.23901e-05;10 mA;
96.8602;0.791321;94.4;473;1.46179e-05;10 mA;
97.0602;0.791626;94.6;474;1.26343e-05;10 mA;
97.2602;0.791931;94.8;475;1.56555e-05;10 mA;
97.4602;0.792236;95;476;1.39771e-05;10 mA;
97.6602;0.792542;95.2;477;1.5625e-05;10 mA;
97.8602;0.792847;95.4;478;1.57166e-05;10 mA;
98.0602;0.793152;95.6;479;1.55334e-05;10 mA;
98.2602;0.793457;95.8;480;1.59302e-05;10 mA;
98.4602;0.793762;96;481;1.38245e-05;10 mA;
98.6602;0.794067;96.2;482;1.59607e-05;10 mA;
98.8602;0.794373;96.4;483;1.34277e-05;10 mA;
99.0602;0.794678;96.6;484;1.44348e-05;10 mA;
99.2602;0.794983;96.8;485;1.40686e-05;10 mA;
99.4602;0.795288;97;486;1.75476e-05;10 mA;
99.6602;0.795593;97.2;487;1.39771e-05;10 mA;
99.8602;0.795898;97.4;488;1.7334e-05;10 mA;
100.06;0.796204;97.6;489;1.63269e-05;10 mA;
100.26;0.796509;97.8;490;1.35498e-05;10 mA;
100.46;0.796814;98;491;1.77307e-05;10 mA;
100.66;0.797119;98.2;492;1.61438e-05;10 mA;
100.86;0.797424;98.4;493;1.49536e-05;10 mA;
101.06;0.797729;98.6;494;1.45874e-05;10 mA;
101.26;0.798035;98.8;495;1.474e-05;10 mA;
101.46;0.79834;99;496;1.41602e-05;10 mA;
101.66;0.798645;99.2;497;1.66016e-05;10 mA;
101.86;0.79895;99.4;498;1.75476e-05;10 mA;
102.06;0.799255;99.6;499;1.52283e-05;10 mA;
102.26;0.799561;99.8;500;1.57776e-05;10 mA;
102.46;0.799866;100;501;1.50757e-05;10 mA;
102.66;0.800171;100.2;502;1.45264e-05;10 mA;
102.86;0.800476;100.4;503;1.7334e-05;10 mA;
103.06;0.800781;100.6;504;1.53503e-05;10 mA;
103.26;0.801086;100.8;505;1.43127e-05;10 mA;
103.46;0.801392;101;506;1.37634e-05;10 mA;
103.66;0.801697;101.2;507;1.42822e-05;10 mA;
103.86;0.802002;101.4;508;1.53198e-05;10 mA;
104.06;0.802307;101.6;509;1.39465e-05;10 mA;
104.26;0.802612;101.8;510;1.52283e-05;10 mA;
104.46;0.802917;102;511;1.51062e-05;10 mA;
104.66;0.803223;102.2;512;1.71204e-05;10 mA;
104.86;0.803528;102.4;513;1.62964e-05;10 mA;
105.06;0.803833;102.6;514;1.58997e-05;10 mA;
105.26;0.804138;102.8;515;1.58081e-05;10 mA;
105.46;0.804443;103;516;1.70898e-05;10 mA;
105.66;0.804749;103.2;517;1.54724e-05;10 mA;
105.86;0.805054;103.4;518;1.44043e-05;10 mA;
106.06;0.805359;103.6;519;1.51062e-05;10 mA;
106.26;0.805664;103.8;520;1.39465e-05;10 mA;
106.46;0.805969;104;521;1.70593e-05;10 mA;
106.66;0.806274;104.2;522;1.72424e-05;10 mA;
106.86;0.80658;104.4;523;1.67847e-05;10 mA;
107.06;0.80719;104.6;524;1.69373e-05;10 mA;
107.26;0.80719;104.8;525;1.73645e-05;10 mA;
107.46;0.807495;105;526;1.60522e-05;10 mA;
107.66;0.8078;105.2;527;1.55945e-05;10 mA;
107.86;0.808105;105.4;528;1.66931e-05;10 mA;
108.06;0.808411;105.6;529;1.44348e-05;10 mA;
108.26;0.808716;105.8;530;1.61743e-05;10 mA;
108.46;0.809021;106;531;1.58081e-05;10 mA;
108.66;0.809326;106.2;532;1.49536e-05;10 mA;
108.86;0.809631;106.4;533;1.72729e-05;10 mA;
109.06;0.809937;106.6;534;1.46484e-05;10 mA;
109.26;0.810242;106.8;535;1.49231e-05;10 mA;
109.46;0.810547;107;536;1.40991e-05;10 mA;
109.66;0.810852;107.2;537;1.3855e-05;10 mA;
109.86;0.811157;107.4;538;1.5625e-05;10 mA;
110.06;0.811157;107.6;539;1.54724e-05;10 mA;
110.26;0.811768;107.8;540;1.39771e-05;10 mA;
110.46;0.811768;108;541;1.67542e-05;10 mA;
110.66;0.812378;108.2;542;1.63269e-05;10 mA;
110.86;0.812378;108.4;543;1.5686e-05;10 mA;
111.06;0.812683;108.6;544;1.66931e-05;10 mA;
111.26;0.812988;108.8;545;1.39771e-05;10 mA;
111.46;0.813293;109;546;1.52283e-05;10 mA;
111.66;0.813599;109.2;547;1.62048e-05;10 mA;
111.86;0.813904;109.4;548;1.45874e-05;10 mA;
112.06;0.814209;109.6;549;1.41602e-05;10 mA;
112.26;0.814514;109.8;550;1.62048e-05;10 mA;
112.46;0.814819;110;551;1.7334e-05;10 mA;
112.66;0.815125;110.2;552;1.53198e-05;10 mA;
112.86;0.81543;110.4;553;1.37024e-05;10 mA;
113.06;0.81543;110.6;554;1.51672e-05;10 mA;
113.26;0.815735;110.8;555;1.67236e-05;10 mA;
113.46;0.81604;111;556;1.44958e-05;10 mA;
113.66;0.816345;111.2;557;1.64795e-05;10 mA;
113.86;0.81665;111.4;558;1.51672e-05;10 mA;
114.06;0.816956;111.6;559;1.79138e-05;10 mA;
114.26;0.817261;111.8;560;1.50146e-05;10 mA;
114.46;0.817566;112;561;1.6571e-05;10 mA;
114.66;0.817871;112.2;562;1.79443e-05;10 mA;
114.86;0.817871;112.4;563;1.42212e-05;10 mA;
115.06;0.818176;112.6;564;1.51978e-05;10 mA;
115.26;0.818481;112.8;565;1.45569e-05;10 mA;
115.46;0.818787;113;566;1.55945e-05;10 mA;
115.66;0.819092;113.2;567;1.40686e-05;10 mA;
115.86;0.819397;113.4;568;1.75476e-05;10 mA;
116.06;0.819702;113.6;569;1.40381e-05;10 mA;
116.26;0.820007;113.8;570;1.64795e-05;10 mA;
116.46;0.8203125;114;571;1.44958e-05;10 mA;
116.66;0.820618;114.2;572;1.50452e-05;10 mA;
116.86;0.820923;114.4;573;1.5686e-05;10 mA;
117.06;0.820923;114.6;574;1.59607e-05;10 mA;
117.26;0.821228;114.8;575;1.4801e-05;10 mA;
117.46;0.821533;115;576;1.3855e-05;10 mA;
117.66;0.821838;115.2;577;1.75171e-05;10 mA;
117.86;0.822144;115.4;578;1.47095e-05;10 mA;
118.06;0.822449;115.6;579;1.38245e-05;10 mA;
118.26;0.822754;115.8;580;1.43127e-05;10 mA;
118.46;0.823059;116;581;1.8158e-05;10 mA;
118.66;0.823364;116.2;582;1.77307e-05;10 mA;
118.86;0.823364;116.4;583;1.56555e-05;10 mA;
119.06;0.823669;116.6;584;1.62048e-05;10 mA;
119.26;0.823975;116.8;585;1.62354e-05;10 mA;
119.46;0.82428;117;586;1.56555e-05;10 mA;
119.66;0.824585;117.2;587;1.79749e-05;10 mA;
119.86;0.82489;117.4;588;1.58691e-05;10 mA;
120.06;0.82489;117.6;589;1.79138e-05;10 mA;
120.26;0.825195;117.8;590;1.67236e-05;10 mA;
120.46;0.8255;118;591;1.36719e-05;10 mA;
120.66;0.825806;118.2;592;1.23291e-05;10 mA;
120.86;0.826111;118.4;593;1.66321e-05;10 mA;
121.06;0.826111;118.6;594;1.78528e-05;10 mA;
121.26;0.826416;118.8;595;1.28784e-05;10 mA;
121.46;0.826721;119;596;1.58997e-05;10 mA;
121.66;0.827026;119.2;597;1.48315e-05;10 mA;
121.86;0.827332;119.4;598;1.3916e-05;10 mA;
122.06;0.827332;119.6;599;1.66931e-05;10 mA;
122.26;0.827637;119.8;600;1.80359e-05;10 mA;
122.46;0.827942;120;601;1.43738e-05;10 mA;
122.66;0.828247;120.2;602;1.40076e-05;10 mA;
122.86;0.828247;120.4;603;1.62354e-05;10 mA;
123.06;0.828552;120.6;604;1.6449e-05;10 mA;
123.26;0.828857;120.8;605;1.15356e-05;10 mA;
123.46;0.829163;121;606;1.81274e-05;10 mA;
123.66;0.829163;121.2;607;1.43433e-05;10 mA;
123.86;0.829468;121.4;608;1.45264e-05;10 mA;
124.06;0.829773;121.6;609;1.81274e-05;10 mA;
124.26;0.829773;121.8;610;1.474e-05;10 mA;
124.46;0.830078;122;611;1.83716e-05;10 mA;
124.66;0.830383;122.2;612;1.49841e-05;10 mA;
124.86;0.830688;122.4;613;1.45874e-05;10 mA;
125.06;0.830688;122.6;614;1.44043e-05;10 mA;
125.26;0.830994;122.8;615;1.651e-05;10 mA;
125.46;0.831299;123;616;1.44958e-05;10 mA;
125.66;0.831604;123.2;617;1.74866e-05;10 mA;
125.86;0.831604;123.4;618;1.64185e-05;10 mA;
126.06;0.831909;123.6;619;1.53503e-05;10 mA;
126.26;0.832214;123.8;620;1.77002e-05;10 mA;
126.46;0.83252;124;621;1.66016e-05;10 mA;
126.66;0.832825;124.2;622;1.66626e-05;10 mA;
126.86;0.832825;124.4;623;1.58081e-05;10 mA;
127.06;0.83313;124.6;624;1.40381e-05;10 mA;
127.26;0.833435;124.8;625;1.55334e-05;10 mA;
127.46;0.833435;125;626;1.43433e-05;10 mA;
127.66;0.83374;125.2;627;1.74255e-05;10 mA;
127.86;0.834045;125.4;628;1.35193e-05;10 mA;
128.06;0.834351;125.6;629;1.79443e-05;10 mA;
128.26;0.834656;125.8;630;1.66931e-05;10 mA;
128.46;0.834656;126;631;1.57471e-05;10 mA;
128.66;0.834961;126.2;632;1.42822e-05;10 mA;
128.86;0.835266;126.4;633;1.64185e-05;10 mA;
129.06;0.835571;126.6;634;1.6449e-05;10 mA;
129.26;0.835571;126.8;635;1.69067e-05;10 mA;
129.46;0.835876;127;636;1.57776e-05;10 mA;
129.66;0.836182;127.2;637;1.44653e-05;10 mA;
129.86;0.836487;127.4;638;1.52893e-05;10 mA;
130.06;0.836487;127.6;639;1.79138e-05;10 mA;
130.26;0.836792;127.8;640;1.34888e-05;10 mA;
130.46;0.837097;128;641;1.36108e-05;10 mA;
130.66;0.837097;128.2;642;1.52588e-05;10 mA;
130.86;0.837402;128.4;643;1.79749e-05;10 mA;
131.06;0.837708;128.6;644;1.45874e-05;10 mA;
131.26;0.838013;128.8;645;1.37024e-05;10 mA;
131.46;0.838013;129;646;1.70288e-05;10 mA;
131.66;0.838318;129.2;647;1.63269e-05;10 mA;
131.86;0.838623;129.4;648;1.70593e-05;10 mA;
132.06;0.838623;129.6;649;1.54724e-05;10 mA;
132.26;0.838928;129.8;650;1.43433e-05;10 mA;
132.46;0.839233;130;651;1.39771e-05;10 mA;
132.66;0.839233;130.2;652;1.63269e-05;10 mA;
132.86;0.839539;130.4;653;1.58386e-05;10 mA;
133.06;0.839539;130.6;654;1.44653e-05;10 mA;
133.26;0.839844;130.8;655;1.38245e-05;10 mA;
133.46;0.840149;131;656;1.69983e-05;10 mA;
133.66;0.840149;131.2;657;1.42822e-05;10 mA;
133.86;0.840454;131.4;658;1.42212e-05;10 mA;
134.06;0.840759;131.6;659;1.36108e-05;10 mA;
134.26;0.840759;131.8;660;1.77307e-05;10 mA;
134.46;0.841064;132;661;1.46179e-05;10 mA;
134.66;0.84137;132.2;662;1.69067e-05;10 mA;
134.86;0.841675;132.4;663;1.77002e-05;10 mA;
135.06;0.841675;132.6;664;1.78528e-05;10 mA;
135.26;0.84198;132.8;665;1.40381e-05;10 mA;
135.46;0.84198;133;666;1.66626e-05;10 mA;
135.66;0.842285;133.2;667;1.55334e-05;10 mA;
135.86;0.84259;133.4;668;1.72119e-05;10 mA;
136.06;0.84259;133.6;669;1.37329e-05;10 mA;
136.26;0.842896;133.8;670;1.4801e-05;10 mA;
136.46;0.843201;134;671;1.5564e-05;10 mA;
136.66;0.843201;134.2;672;1.7334e-05;10 mA;
136.86;0.843506;134.4;673;1.54724e-05;10 mA;
137.06;0.843811;134.6;674;1.71509e-05;10 mA;
137.26;0.843811;134.8;675;1.51978e-05;10 mA;
137.46;0.844116;135;676;1.46484e-05;10 mA;
137.66;0.844421;135.2;677;1.71814e-05;10 mA;
137.86;0.844421;135.4;678;1.4801e-05;10 mA;
138.06;0.844727;135.6;679;1.69983e-05;10 mA;
138.26;0.844727;135.8;680;1.51062e-05;10 mA;
138.46;0.845032;136;681;1.50757e-05;10 mA;
138.66;0.845337;136.2;682;1.71204e-05;10 mA;
138.86;0.845337;136.4;683;1.55334e-05;10 mA;
139.06;0.845642;136.6;684;1.5625e-05;10 mA;
139.26;0.845642;136.8;685;1.55334e-05;10 mA;
139.46;0.845947;137;686;1.60522e-05;10 mA;
139.66;0.846252;137.2;687;1.71204e-05;10 mA;
139.86;0.846252;137.4;688;1.66016e-05;10 mA;
140.06;0.846558;137.6;689;1.73645e-05;10 mA;
140.26;0.846863;137.8;690;1.66321e-05;10 mA;
140.46;0.846863;138;691;1.55334e-05;10 mA;
140.66;0.847168;138.2;692;1.5686e-05;10 mA;
140.86;0.847473;138.4;693;1.4801e-05;10 mA;
141.06;0.847473;138.6;694;1.52588e-05;10 mA;
141.26;0.847778;138.8;695;1.75171e-05;10 mA;
141.46;0.848083;139;696;1.40381e-05;10 mA;
141.66;0.848083;139.2;697;1.3916e-05;10 mA;
141.86;0.848389;139.4;698;1.63879e-05;10 mA;
142.06;0.848694;139.6;699;1.76697e-05;10 mA;
142.26;0.848694;139.8;700;1.72729e-05;10 mA;
142.46;0.848999;140;701;1.3855e-05;10 mA;
142.66;0.848999;140.2;702;1.69067e-05;10 mA;
142.86;0.849304;140.4;703;1.71204e-05;10 mA;
143.06;0.849609;140.6;704;1.7395e-05;10 mA;
143.26;0.849609;140.8;705;1.43127e-05;10 mA;
143.46;0.849915;141;706;1.66626e-05;10 mA;
143.66;0.85022;141.2;707;1.42517e-05;10 mA;WE(1).Potential > 0,85 V
143.86;0.85022;141.4;708;1.57471e-05;10 mA;WE(1).Potential > 0,85 V
144.06;0.850525;141.6;709;1.42212e-05;10 mA;WE(1).Potential > 0,85 V
144.26;0.85083;141.8;710;1.61743e-05;10 mA;WE(1).Potential > 0,85 V