File: CDMXene2-1Ag-1DESCARGA2.txt
Time (s);WE(1).Potential (V);Corrected time (s);Index;WE(1).Current (A)
937.196;0.838318;0;1;-3.26538e-06
937.796;0.8255;0.6;4;-1.2207e-06
938.396;0.81665;1.2;7;-6.40869e-07
938.996;0.809326;1.8;10;-1.25122e-06
939.596;0.803223;2.4;13;-2.56348e-06
940.196;0.797424;3;16;-5.06592e-06
940.796;0.792236;3.6;19;-1.95313e-06
941.396;0.787048;4.2;22;-3.20435e-06
941.996;0.782471;4.8;25;-2.74658e-06
942.596;0.778198;5.4;28;-4.21143e-06
943.196;0.773926;6;31;-1.64795e-06
943.796;0.769653;6.6;34;-2.44141e-06
944.396;0.765686;7.2;37;-4.24194e-06
944.996;0.762024;7.8;40;-1.58691e-06
945.596;0.758057;8.4;43;-5.18799e-07
946.196;0.7547;9;46;-4.02832e-06
946.796;0.751038;9.6;49;-1.2207e-06
947.396;0.747375;10.2;52;-4.05884e-06
947.996;0.744019;10.8;55;-4.15039e-06
948.596;0.740662;11.4;58;-2.71606e-06
949.196;0.73761;12;61;-1.31226e-06
949.796;0.734253;12.6;64;-3.23486e-06
950.396;0.731201;13.2;67;-4.60815e-06
950.996;0.728149;13.8;70;-3.11279e-06
951.596;0.725098;14.4;73;-1.98364e-06
952.196;0.722351;15;76;-4.85229e-06
952.796;0.719299;15.6;79;-1.64795e-06
953.396;0.716248;16.2;82;-3.60107e-06
953.996;0.713501;16.8;85;-1.77002e-06
954.596;0.710754;17.4;88;-2.71606e-06
955.196;0.708008;18;91;-1.5564e-06
955.796;0.705566;18.6;94;-4.48608e-06
956.396;0.70282;19.2;97;-3.32642e-06
956.996;0.700073;19.8;100;-2.04468e-06
957.596;0.697632;20.4;103;-3.57056e-06
958.196;0.694885;21;106;-4.3335e-06
958.796;0.692444;21.6;109;-3.02124e-06
959.396;0.689697;22.2;112;-5.5542e-06
959.996;0.687256;22.8;115;-1.34277e-06
960.596;0.684814;23.4;118;-5.61523e-06
961.196;0.682373;24;121;-4.02832e-06
961.796;0.679932;24.6;124;-3.72314e-06
962.396;0.677795;25.2;127;-2.28882e-06
962.996;0.675354;25.8;130;-3.17383e-06
963.596;0.672913;26.4;133;-4.5166e-06
964.196;0.670776;27;136;-1.61743e-06
964.796;0.668335;27.6;139;-4.15039e-06
965.396;0.666199;28.2;142;-3.75366e-06
965.996;0.6640625;28.8;145;-3.35693e-06
966.596;0.661926;29.4;148;-2.74658e-06
967.196;0.659485;30;151;-3.2959e-06
967.796;0.657349;30.6;154;-7.62939e-07
968.396;0.655212;31.2;157;-2.56348e-06
968.996;0.653076;31.8;160;-1.09863e-06
969.596;0.65094;32.4;163;-3.90625e-06
970.196;0.648804;33;166;-5.43213e-06
970.796;0.646667;33.6;169;-5.43213e-06
971.396;0.644531;34.2;172;-5.34058e-06
971.996;0.642395;34.8;175;-2.74658e-06
972.596;0.640564;35.4;178;-4.3335e-06
973.196;0.638428;36;181;-2.2583e-06
973.796;0.636292;36.6;184;-4.24194e-06
974.396;0.634155;37.2;187;-2.53296e-06
974.996;0.632324;37.8;190;-4.11987e-06
975.596;0.630188;38.4;193;-2.71606e-06
976.196;0.628357;39;196;-4.39453e-06
976.796;0.626526;39.6;199;-1.95313e-06
977.396;0.62439;40.2;202;-3.44849e-06
977.996;0.622559;40.8;205;-3.23486e-06
978.596;0.620422;41.4;208;-2.16675e-06
979.196;0.618591;42;211;-4.5166e-06
979.796;0.61676;42.6;214;-1.37329e-06
980.396;0.614624;43.2;217;-5.24902e-06
980.996;0.612793;43.8;220;-4.24194e-06
981.596;0.610962;44.4;223;-5.06592e-06
982.196;0.609131;45;226;-4.91333e-06
982.796;0.6073;45.6;229;-4.48608e-06
983.396;0.605469;46.2;232;-3.57056e-06
983.996;0.603638;46.8;235;-5.34058e-06
984.596;0.601807;47.4;238;-3.72314e-06
985.196;0.599976;48;241;-5.00488e-06
985.796;0.598145;48.6;244;-1.31226e-06
986.396;0.596313;49.2;247;-1.67847e-06
986.996;0.594482;49.8;250;-1.37329e-06
987.596;0.592651;50.4;253;-5.09644e-06
988.196;0.591125;51;256;-1.31226e-06
988.796;0.589294;51.6;259;-2.28882e-06
989.396;0.587769;52.2;262;-4.48608e-06
989.996;0.5859375;52.8;265;-5.09644e-06
990.596;0.584412;53.4;268;-3.23486e-06
991.196;0.582581;54;271;-2.31934e-06
991.796;0.581055;54.6;274;-3.23486e-06
992.396;0.579529;55.2;277;-2.31934e-06
992.996;0.578003;55.8;280;-5.18799e-06
993.596;0.576172;56.4;283;-2.92969e-06
994.196;0.574646;57;286;-3.41797e-06
994.796;0.572815;57.6;289;-2.31934e-06
995.396;0.571289;58.2;292;-2.50244e-06
995.996;0.569763;58.8;295;-2.01416e-06
996.596;0.568237;59.4;298;-1.46484e-06
997.196;0.566711;60;301;-3.32642e-06
997.796;0.565186;60.6;304;-4.66919e-06
998.396;0.56366;61.2;307;-2.65503e-06
998.996;0.562134;61.8;310;-4.11987e-06
999.596;0.560608;62.4;313;-5.0354e-06
1000.2;0.559082;63;316;-4.42505e-06
1000.8;0.557556;63.6;319;-2.92969e-06
1001.4;0.556335;64.2;322;-2.56348e-06
1002;0.55481;64.8;325;-3.60107e-06
1002.6;0.553284;65.4;328;-2.65503e-06
1003.2;0.551758;66;331;-3.08228e-06
1003.8;0.550537;66.6;334;-3.54004e-06
1004.4;0.549011;67.2;337;-2.80762e-06
1005;0.547791;67.8;340;-2.71606e-06
1005.6;0.546265;68.4;343;-3.2959e-06
1006.2;0.545044;69;346;-2.0752e-06
1006.8;0.543518;69.6;349;-3.11279e-06
1007.4;0.542297;70.2;352;-5.5542e-06
1008;0.540771;70.8;355;-4.18091e-06
1008.6;0.539551;71.4;358;-5.79834e-06
1009.2;0.53833;72;361;-2.53296e-06
1009.8;0.536804;72.6;364;-2.19727e-06
1010.4;0.535583;73.2;367;-3.41797e-06
1011;0.534363;73.8;370;-5.7373e-06
1011.6;0.533142;74.4;373;-4.94385e-06
1012.2;0.531616;75;376;-5.12695e-06
1012.8;0.530396;75.6;379;-2.92969e-06
1013.4;0.529175;76.2;382;-2.71606e-06
1014;0.527649;76.8;385;-2.96021e-06
1014.6;0.526428;77.4;388;-1.89209e-06
1015.2;0.525208;78;391;-3.2959e-06
1015.8;0.523987;78.6;394;-2.99072e-06
1016.4;0.522766;79.2;397;-3.17383e-06
1017;0.521545;79.8;400;-2.44141e-06
1017.6;0.520325;80.4;403;-5.5542e-06
1018.2;0.519104;81;406;-1.40381e-06
1018.8;0.517883;81.6;409;-5.85937e-06
1019.4;0.516663;82.2;412;-3.05176e-06
1020;0.515442;82.8;415;-5.7373e-06
1020.6;0.514221;83.4;418;-5.5542e-06
1021.2;0.513;84;421;-3.35693e-06
1021.8;0.51178;84.6;424;-3.2959e-06
1022.4;0.510559;85.2;427;-4.5166e-06
1023;0.509644;85.8;430;-3.2959e-06
1023.6;0.508423;86.4;433;-1.7395e-06
1024.2;0.507202;87;436;-3.9978e-06
1024.8;0.505981;87.6;439;-5.00488e-06
1025.4;0.504761;88.2;442;-3.17383e-06
1026;0.503845;88.8;445;-3.479e-06
1026.6;0.502625;89.4;448;-1.58691e-06
1027.2;0.501709;90;451;-2.04468e-06
1027.8;0.500488;90.6;454;-4.91333e-06
1028.4;0.499603;91.2;457;-3.8147e-06
1029;0.498596;91.8;460;-3.17383e-06
1029.6;0.497498;92.4;463;-1.34277e-06
1030.2;0.496429;93;466;-2.53296e-06
1030.8;0.495331;93.6;469;-3.69263e-06
1031.4;0.494293;94.2;472;-3.69263e-06
1032;0.493256;94.8;475;-1.67847e-06
1032.6;0.4921875;95.4;478;-2.65503e-06
1033.2;0.491119;96;481;-4.45557e-06
1033.8;0.490082;96.6;484;-5.09644e-06
1034.4;0.489014;97.2;487;-3.60107e-06
1035;0.488007;97.8;490;-1.70898e-06
1035.6;0.487091;98.4;493;-2.19727e-06
1036.2;0.486084;99;496;-5.00488e-06
1036.8;0.485016;99.6;499;-4.24194e-06
1037.4;0.484039;100.2;502;-5.15747e-06
1038;0.482971;100.8;505;-2.99072e-06
1038.6;0.481903;101.4;508;-3.2959e-06
1039.2;0.480865;102;511;-2.7771e-06
1039.8;0.479858;102.6;514;-1.83105e-06
1040.4;0.478851;103.2;517;-2.56348e-06
1041;0.477844;103.8;520;-1.95313e-06
1041.6;0.476837;104.4;523;-4.66919e-06
1042.2;0.475861;105;526;-6.65283e-06
1042.8;0.474915;105.6;529;-1.98364e-06
1043.4;0.473969;106.2;532;-2.92969e-06
1044;0.473022;106.8;535;-3.84521e-06
1044.6;0.472076;107.4;538;-1.2207e-06
1045.2;0.471191;108;541;-5.52368e-06
1045.8;0.470184;108.6;544;-1.37329e-06
1046.4;0.469238;109.2;547;-4.30298e-06
1047;0.468323;109.8;550;-2.92969e-06
1047.6;0.467346;110.4;553;-4.39453e-06
1048.2;0.466431;111;556;-4.15039e-06
1048.8;0.465546;111.6;559;-1.40381e-06
1049.4;0.46463;112.2;562;-4.02832e-06
1050;0.463745;112.8;565;-3.69263e-06
1050.6;0.462891;113.4;568;-4.73022e-06
1051.2;0.461975;114;571;-3.38745e-06
1051.8;0.461029;114.6;574;-4.15039e-06
1052.4;0.460114;115.2;577;-4.54712e-06
1053;0.459229;115.8;580;-2.68555e-06
1053.6;0.458405;116.4;583;-2.7771e-06
1054.2;0.457458;117;586;-2.04468e-06
1054.8;0.456573;117.6;589;-2.86865e-06
1055.4;0.455688;118.2;592;-8.23975e-07
1056;0.454803;118.8;595;-3.66211e-06
1056.6;0.453918;119.4;598;-3.87573e-06
1057.2;0.453033;120;601;-3.17383e-06
1057.8;0.452179;120.6;604;-1.25122e-06
1058.4;0.451355;121.2;607;-1.83105e-06
1059;0.450562;121.8;610;-2.13623e-06
1059.6;0.449738;122.4;613;-2.13623e-06
1060.2;0.448914;123;616;-4.79126e-06
1060.8;0.448059;123.6;619;-5.31006e-06
1061.4;0.447235;124.2;622;-3.50952e-06
1062;0.446381;124.8;625;-1.86157e-06
1062.6;0.445557;125.4;628;-2.41089e-06
1063.2;0.444763;126;631;-2.92969e-06
1063.8;0.44397;126.6;634;-5.27954e-06
1064.4;0.443176;127.2;637;-5.00488e-06
1065;0.442352;127.8;640;-4.08936e-06
1065.6;0.441559;128.4;643;-1.34277e-06
1066.2;0.440765;129;646;-2.47192e-06
1066.8;0.440002;129.6;649;-2.80762e-06
1067.4;0.439178;130.2;652;-5.82886e-06
1068;0.438324;130.8;655;-4.05884e-06
1068.6;0.4375;131.4;658;-2.34985e-06
1069.2;0.436676;132;661;-4.39453e-06
1069.8;0.435913;132.6;664;-1.37329e-06
1070.4;0.43515;133.2;667;-4.27246e-06
1071;0.434448;133.8;670;-1.40381e-06
1071.6;0.433716;134.4;673;-6.53076e-06
1072.2;0.432922;135;676;-2.92969e-06
1072.8;0.432159;135.6;679;-2.47192e-06
1073.4;0.431335;136.2;682;-4.88281e-06
1074;0.430603;136.8;685;-4.60815e-06
1074.6;0.42984;137.4;688;-1.95313e-06
1075.2;0.429077;138;691;-4.97437e-06
1075.8;0.428345;138.6;694;-4.54712e-06
1076.4;0.427612;139.2;697;-4.63867e-06
1077;0.42688;139.8;700;-1.58691e-06
1077.6;0.426208;140.4;703;-5.37109e-06
1078.2;0.425507;141;706;-4.66919e-06
1078.8;0.424896;141.6;709;-2.19727e-06
1079.4;0.424255;142.2;712;-4.02832e-06
1080;0.423553;142.8;715;-2.0752e-06
1080.6;0.422913;143.4;718;-1.52588e-06
1081.2;0.422241;144;721;-2.13623e-06
1081.8;0.4216;144.6;724;-2.13623e-06
1082.4;0.42099;145.2;727;-1.67847e-06
1083;0.420349;145.8;730;-2.83813e-06
1083.6;0.419708;146.4;733;-5.34058e-06
1084.2;0.419067;147;736;-5.24902e-06
1084.8;0.418396;147.6;739;-1.0376e-06
1085.4;0.417755;148.2;742;-2.47192e-06
1086;0.417145;148.8;745;-4.08936e-06
1086.6;0.416565;149.4;748;-6.68335e-06
1087.2;0.415924;150;751;-6.01196e-06
1087.8;0.415314;150.6;754;-4.63867e-06
1088.4;0.414673;151.2;757;-4.63867e-06
1089;0.4140625;151.8;760;-5.49316e-06
1089.6;0.413391;152.4;763;-5.92041e-06
1090.2;0.41272;153;766;-4.82178e-06
1090.8;0.412079;153.6;769;-2.22778e-06
1091.4;0.411407;154.2;772;-3.02124e-06
1092;0.410736;154.8;775;-4.60815e-06
1092.6;0.410126;155.4;778;-2.44141e-06
1093.2;0.409485;156;781;-1.15967e-06
1093.8;0.408783;156.6;784;-1.49536e-06
1094.4;0.408142;157.2;787;-3.44849e-06
1095;0.407501;157.8;790;-2.86865e-06
1095.6;0.40686;158.4;793;-4.60815e-06
1096.2;0.406219;159;796;-4.79126e-06
1096.8;0.405609;159.6;799;-4.08936e-06
1097.4;0.405029;160.2;802;-2.7771e-06
1098;0.404449;160.8;805;-2.56348e-06
1098.6;0.40387;161.4;808;-3.11279e-06
1099.2;0.40332;162;811;-2.86865e-06
1099.8;0.40274;162.6;814;-4.91333e-06
1100.4;0.40213;163.2;817;-4.88281e-06
1101;0.40152;163.8;820;-4.3335e-06
1101.6;0.400909;164.4;823;-1.2207e-06
1102.2;0.400269;165;826;-1.89209e-06
1102.8;0.399689;165.6;829;-2.59399e-06
1103.4;0.399109;166.2;832;-1.37329e-06
1104;0.398529;166.8;835;-3.87573e-06
1104.6;0.397919;167.4;838;-3.23486e-06
1105.2;0.397339;168;841;-4.45557e-06
1105.8;0.396729;168.6;844;-3.78418e-06
1106.4;0.396118;169.2;847;-4.79126e-06
1107;0.395538;169.8;850;-2.74658e-06
1107.6;0.394867;170.4;853;-1.64795e-06
1108.2;0.394318;171;856;-3.32642e-06
1108.8;0.393677;171.6;859;-4.91333e-06
1109.4;0.393097;172.2;862;-1.2207e-06
1110;0.392517;172.8;865;-5.00488e-06
1110.6;0.391937;173.4;868;-3.35693e-06
1111.2;0.391388;174;871;-3.05176e-06
1111.8;0.390778;174.6;874;-5.06592e-06
1112.4;0.390228;175.2;877;-1.58691e-06
1113;0.389648;175.8;880;-4.69971e-06
1113.6;0.389069;176.4;883;-4.05884e-06
1114.2;0.388519;177;886;-1.70898e-06
1114.8;0.38797;177.6;889;-5.49316e-06
1115.4;0.387421;178.2;892;-4.66919e-06
1116;0.386902;178.8;895;-3.44849e-06
1116.6;0.386353;179.4;898;-4.36401e-06
1117.2;0.385803;180;901;-5.09644e-06
1117.8;0.385254;180.6;904;-3.50952e-06
1118.4;0.384705;181.2;907;-3.44849e-06
1119;0.384155;181.8;910;-1.5564e-06
1119.6;0.383575;182.4;913;-2.68555e-06
1120.2;0.383057;183;916;-5.06592e-06
1120.8;0.382446;183.6;919;-4.30298e-06
1121.4;0.381958;184.2;922;-5.34058e-06
1122;0.381409;184.8;925;-1.58691e-06
1122.6;0.38089;185.4;928;-5.34058e-06
1123.2;0.380402;186;931;-3.90625e-06
1123.8;0.379883;186.6;934;-1.64795e-06
1124.4;0.379364;187.2;937;-2.83813e-06
1125;0.378876;187.8;940;-2.7771e-06
1125.6;0.378357;188.4;943;-1.49536e-06
1126.2;0.377808;189;946;-3.93677e-06
1126.8;0.377289;189.6;949;-4.21143e-06
1127.4;0.37674;190.2;952;-2.56348e-06
1128;0.376221;190.8;955;-2.38037e-06
1128.6;0.375702;191.4;958;-3.50952e-06
1129.2;0.375244;192;961;-4.57764e-06
1129.8;0.374756;192.6;964;-2.13623e-06
1130.4;0.374298;193.2;967;-4.60815e-06
1131;0.37381;193.8;970;-3.08228e-06
1131.6;0.373322;194.4;973;-3.05176e-06
1132.2;0.372833;195;976;-2.80762e-06
1132.8;0.372345;195.6;979;-2.80762e-06
1133.4;0.371826;196.2;982;-1.52588e-06
1134;0.371399;196.8;985;-5.21851e-06
1134.6;0.370911;197.4;988;-5.0354e-06
1135.2;0.370422;198;991;-1.92261e-06
1135.8;0.369904;198.6;994;-1.98364e-06
1136.4;0.369415;199.2;997;-4.27246e-06
1137;0.368927;199.8;1000;-2.44141e-06
1137.6;0.368439;200.4;1003;-1.64795e-06
1138.2;0.36795;201;1006;-3.96729e-06
1138.8;0.367401;201.6;1009;-3.35693e-06
1139.4;0.366882;202.2;1012;-3.44849e-06
1140;0.366364;202.8;1015;-2.7771e-06
1140.6;0.365845;203.4;1018;-3.20435e-06
1141.2;0.365295;204;1021;-4.27246e-06
1141.8;0.364807;204.6;1024;-2.99072e-06
1142.4;0.364349;205.2;1027;-4.79126e-06
1143;0.363892;205.8;1030;-3.50952e-06
1143.6;0.363434;206.4;1033;-3.20435e-06
1144.2;0.362976;207;1036;-2.47192e-06
1144.8;0.362549;207.6;1039;-3.60107e-06
1145.4;0.362091;208.2;1042;-5.27954e-06
1146;0.361572;208.8;1045;-2.71606e-06
1146.6;0.361053;209.4;1048;-3.2959e-06
1147.2;0.360535;210;1051;-4.85229e-06
1147.8;0.360016;210.6;1054;-1.46484e-06
1148.4;0.359558;211.2;1057;-3.90625e-06
1149;0.35907;211.8;1060;-4.45557e-06
1149.6;0.358521;212.4;1063;-2.56348e-06
1150.2;0.358032;213;1066;-2.34985e-06
1150.8;0.357513;213.6;1069;-3.32642e-06
1151.4;0.356995;214.2;1072;-1.77002e-06
1152;0.356445;214.8;1075;-4.66919e-06
1152.6;0.355927;215.4;1078;-1.70898e-06
1153.2;0.355438;216;1081;-3.96729e-06
1153.8;0.35498;216.6;1084;-3.26538e-06
1154.4;0.354462;217.2;1087;-3.78418e-06
1155;0.353943;217.8;1090;-5.15747e-06
1155.6;0.353455;218.4;1093;-2.74658e-06
1156.2;0.352966;219;1096;-3.69263e-06
1156.8;0.352478;219.6;1099;-3.02124e-06
1157.4;0.35202;220.2;1102;-3.72314e-06
1158;0.351593;220.8;1105;-5.0354e-06
1158.6;0.351105;221.4;1108;-1.61743e-06
1159.2;0.350647;222;1111;-5.0354e-06
1159.8;0.350159;222.6;1114;-5.12695e-06
1160.4;0.34967;223.2;1117;-2.53296e-06
1161;0.349243;223.8;1120;-2.92969e-06
1161.6;0.348816;224.4;1123;-5.31006e-06
1162.2;0.348358;225;1126;-2.2583e-06
1162.8;0.3479;225.6;1129;-3.8147e-06
1163.4;0.347443;226.2;1132;-3.54004e-06
1164;0.346954;226.8;1135;-4.97437e-06
1164.6;0.346527;227.4;1138;-1.95313e-06
1165.2;0.346069;228;1141;-5.21851e-06
1165.8;0.345612;228.6;1144;-5.18799e-06
1166.4;0.345184;229.2;1147;-4.27246e-06
1167;0.344696;229.8;1150;-2.92969e-06
1167.6;0.344238;230.4;1153;-1.86157e-06
1168.2;0.343719;231;1156;-5.09644e-06
1168.8;0.343292;231.6;1159;-4.69971e-06
1169.4;0.342865;232.2;1162;-3.90625e-06
1170;0.342407;232.8;1165;-4.36401e-06
1170.6;0.34198;233.4;1168;-5.21851e-06
1171.2;0.341553;234;1171;-2.19727e-06
1171.8;0.341095;234.6;1174;-2.99072e-06
1172.4;0.340637;235.2;1177;-6.13403e-06
1173;0.34024;235.8;1180;-4.45557e-06
1173.6;0.339813;236.4;1183;-3.02124e-06
1174.2;0.339355;237;1186;-1.2207e-06
1174.8;0.338928;237.6;1189;-2.19727e-06
1175.4;0.338531;238.2;1192;-4.57764e-06
1176;0.338074;238.8;1195;-2.99072e-06
1176.6;0.337646;239.4;1198;-4.85229e-06
1177.2;0.337189;240;1201;-3.08228e-06
1177.8;0.336731;240.6;1204;-3.69263e-06
1178.4;0.336304;241.2;1207;-5.09644e-06
1179;0.335846;241.8;1210;-4.69971e-06
1179.6;0.335388;242.4;1213;-3.78418e-06
1180.2;0.334961;243;1216;-3.93677e-06
1180.8;0.334534;243.6;1219;-6.073e-06
1181.4;0.334106;244.2;1222;-3.14331e-06
1182;0.333649;244.8;1225;-5.24902e-06
1182.6;0.333221;245.4;1228;-1.98364e-06
1183.2;0.332764;246;1231;-5.09644e-06
1183.8;0.332275;246.6;1234;-6.13403e-06
1184.4;0.331818;247.2;1237;-1.49536e-06
1185;0.33139;247.8;1240;-1.95313e-06
1185.6;0.330933;248.4;1243;-3.38745e-06
1186.2;0.330536;249;1246;-2.2583e-06
1186.8;0.330109;249.6;1249;-2.56348e-06
1187.4;0.329712;250.2;1252;-2.68555e-06
1188;0.329315;250.8;1255;-4.88281e-06
1188.6;0.328827;251.4;1258;-2.83813e-06
1189.2;0.328369;252;1261;-3.23486e-06
1189.8;0.327972;252.6;1264;-1.77002e-06
1190.4;0.327545;253.2;1267;-2.19727e-06
1191;0.327118;253.8;1270;-4.76074e-06
1191.6;0.326691;254.4;1273;-5.40161e-06
1192.2;0.326233;255;1276;-5.12695e-06
1192.8;0.325806;255.6;1279;-2.74658e-06
1193.4;0.325409;256.2;1282;-4.36401e-06
1194;0.324982;256.8;1285;-3.41797e-06
1194.6;0.324524;257.4;1288;-5.67627e-06
1195.2;0.324097;258;1291;-1.86157e-06
1195.8;0.323608;258.6;1294;-2.68555e-06
1196.4;0.323212;259.2;1297;-5.5542e-06
1197;0.322754;259.8;1300;-1.70898e-06
1197.6;0.322266;260.4;1303;-2.62451e-06
1198.2;0.321838;261;1306;-1.43433e-06
1198.8;0.321411;261.6;1309;-1.64795e-06
1199.4;0.320953;262.2;1312;-4.76074e-06
1200;0.320526;262.8;1315;-4.42505e-06
1200.6;0.320068;263.4;1318;-5.43213e-06
1201.2;0.319611;264;1321;-2.04468e-06
1201.8;0.319214;264.6;1324;-1.95313e-06
1202.4;0.318817;265.2;1327;-2.80762e-06
1203;0.31839;265.8;1330;-5.46265e-06
1203.6;0.317963;266.4;1333;-5.46265e-06
1204.2;0.317535;267;1336;-5.5542e-06
1204.8;0.317139;267.6;1339;-5.85937e-06
1205.4;0.316711;268.2;1342;-4.91333e-06
1206;0.316284;268.8;1345;-3.50952e-06
1206.6;0.315857;269.4;1348;-5.34058e-06
1207.2;0.31543;270;1351;-5.49316e-06
1207.8;0.314941;270.6;1354;-5.46265e-06
1208.4;0.314484;271.2;1357;-2.50244e-06
1209;0.314056;271.8;1360;-3.54004e-06
1209.6;0.313599;272.4;1363;-1.64795e-06
1210.2;0.313141;273;1366;-2.0752e-06
1210.8;0.312683;273.6;1369;-3.32642e-06
1211.4;0.312256;274.2;1372;-5.43213e-06
1212;0.311829;274.8;1375;-1.89209e-06
1212.6;0.311401;275.4;1378;-2.65503e-06
1213.2;0.310974;276;1381;-3.57056e-06
1213.8;0.310547;276.6;1384;-1.95313e-06
1214.4;0.310089;277.2;1387;-2.83813e-06
1215;0.309631;277.8;1390;-2.86865e-06
1215.6;0.309204;278.4;1393;-2.0752e-06
1216.2;0.308807;279;1396;-3.8147e-06
1216.8;0.30838;279.6;1399;-2.56348e-06
1217.4;0.307922;280.2;1402;-1.83105e-06
1218;0.307495;280.8;1405;-2.34985e-06
1218.6;0.307098;281.4;1408;-1.89209e-06
1219.2;0.306702;282;1411;-4.57764e-06
1219.8;0.306305;282.6;1414;-4.69971e-06
1220.4;0.305908;283.2;1417;-1.83105e-06
1221;0.305511;283.8;1420;-2.01416e-06
1221.6;0.305115;284.4;1423;-4.02832e-06
1222.2;0.304749;285;1426;-5.12695e-06
1222.8;0.304352;285.6;1429;-5.37109e-06
1223.4;0.303986;286.2;1432;-1.89209e-06
1224;0.303589;286.8;1435;-3.57056e-06
1224.6;0.303223;287.4;1438;-3.78418e-06
1225.2;0.302795;288;1441;-3.38745e-06
1225.8;0.302429;288.6;1444;-1.52588e-06
1226.4;0.302032;289.2;1447;-1.67847e-06
1227;0.301636;289.8;1450;-1.64795e-06
1227.6;0.301239;290.4;1453;-4.76074e-06
1228.2;0.300842;291;1456;-1.37329e-06
1228.8;0.300415;291.6;1459;-3.84521e-06
1229.4;0.300018;292.2;1462;-5.00488e-06
1230;0.299622;292.8;1465;-4.08936e-06
1230.6;0.299225;293.4;1468;-1.2207e-07
1231.2;0.298828;294;1471;-4.39453e-06
1231.8;0.298462;294.6;1474;-5.37109e-06
1232.4;0.298096;295.2;1477;-6.31714e-06
1233;0.297699;295.8;1480;-5.92041e-06
1233.6;0.297302;296.4;1483;-2.62451e-06
1234.2;0.296906;297;1486;-1.64795e-06
1234.8;0.296509;297.6;1489;-4.05884e-06
1235.4;0.296112;298.2;1492;-3.66211e-06
1236;0.295685;298.8;1495;-2.62451e-06
1236.6;0.295288;299.4;1498;-4.18091e-06
1237.2;0.294922;300;1501;-3.20435e-06
1237.8;0.294525;300.6;1504;-4.69971e-06
1238.4;0.294128;301.2;1507;-4.60815e-06
1239;0.293732;301.8;1510;-4.18091e-06
1239.6;0.293335;302.4;1513;-2.31934e-06
1240.2;0.292938;303;1516;-4.21143e-06
1240.8;0.292542;303.6;1519;-4.63867e-06
1241.4;0.292145;304.2;1522;-3.60107e-06
1242;0.291748;304.8;1525;-2.80762e-06
1242.6;0.291351;305.4;1528;-4.60815e-06
1243.2;0.290955;306;1531;-4.57764e-06
1243.8;0.290558;306.6;1534;-3.54004e-06
1244.4;0.290161;307.2;1537;-3.96729e-06
1245;0.289795;307.8;1540;-2.19727e-06
1245.6;0.289429;308.4;1543;-2.92969e-06
1246.2;0.289093;309;1546;-2.71606e-06
1246.8;0.288757;309.6;1549;-3.54004e-06
1247.4;0.288422;310.2;1552;-2.44141e-06
1248;0.288086;310.8;1555;-3.11279e-06
1248.6;0.28775;311.4;1558;-2.44141e-06
1249.2;0.287354;312;1561;-4.36401e-06
1249.8;0.287018;312.6;1564;-2.59399e-06
1250.4;0.286652;313.2;1567;-3.60107e-06
1251;0.286285;313.8;1570;-1.98364e-06
1251.6;0.285889;314.4;1573;-2.74658e-06
1252.2;0.285461;315;1576;-2.92969e-06
1252.8;0.285034;315.6;1579;-2.56348e-06
1253.4;0.284607;316.2;1582;-1.52588e-06
1254;0.28421;316.8;1585;-5.92041e-06
1254.6;0.283783;317.4;1588;-5.95093e-06
1255.2;0.283417;318;1591;-5.98145e-06
1255.8;0.28299;318.6;1594;-2.96021e-06
1256.4;0.282593;319.2;1597;-5.24902e-06
1257;0.282166;319.8;1600;-5.95093e-06
1257.6;0.281769;320.4;1603;-4.24194e-06
1258.2;0.281372;321;1606;-4.3335e-06
1258.8;0.281006;321.6;1609;-5.67627e-06
1259.4;0.280609;322.2;1612;-5.58472e-06
1260;0.280212;322.8;1615;-2.13623e-06
1260.6;0.279877;323.4;1618;-5.21851e-06
1261.2;0.27951;324;1621;-2.0752e-06
1261.8;0.279175;324.6;1624;-1.89209e-06
1262.4;0.278809;325.2;1627;-1.52588e-07
1263;0.278442;325.8;1630;-4.15039e-06
1263.6;0.278046;326.4;1633;-3.75366e-06
1264.2;0.277649;327;1636;-4.21143e-06
1264.8;0.277222;327.6;1639;-4.05884e-06
1265.4;0.276764;328.2;1642;-4.15039e-06
1266;0.276337;328.8;1645;-3.96729e-06
1266.6;0.27597;329.4;1648;-2.28882e-06
1267.2;0.275574;330;1651;-3.50952e-06
1267.8;0.275208;330.6;1654;-3.26538e-06
1268.4;0.274841;331.2;1657;-3.60107e-06
1269;0.274506;331.8;1660;-4.60815e-06
1269.6;0.274139;332.4;1663;-4.82178e-06
1270.2;0.273682;333;1666;-2.83813e-06
1270.8;0.273285;333.6;1669;-3.41797e-06
1271.4;0.272858;334.2;1672;-3.50952e-06
1272;0.27243;334.8;1675;-5.12695e-06
1272.6;0.272003;335.4;1678;-3.54004e-06
1273.2;0.271545;336;1681;-3.479e-06
1273.8;0.271088;336.6;1684;-3.50952e-06
1274.4;0.27066;337.2;1687;-1.19019e-06
1275;0.270233;337.8;1690;-4.24194e-06
1275.6;0.269806;338.4;1693;-5.31006e-06
1276.2;0.269409;339;1696;-2.2583e-06
1276.8;0.269012;339.6;1699;-1.46484e-06
1277.4;0.268646;340.2;1702;-2.80762e-06
1278;0.26825;340.8;1705;-4.02832e-06
1278.6;0.267883;341.4;1708;-5.18799e-06
1279.2;0.267487;342;1711;-3.11279e-06
1279.8;0.26712;342.6;1714;-4.36401e-06
1280.4;0.266724;343.2;1717;-3.11279e-06
1281;0.266327;343.8;1720;-3.90625e-06
1281.6;0.265991;344.4;1723;-4.05884e-06
1282.2;0.265625;345;1726;-4.39453e-06
1282.8;0.265289;345.6;1729;-5.43213e-06
1283.4;0.264923;346.2;1732;-5.43213e-06
1284;0.264496;346.8;1735;-4.88281e-06
1284.6;0.264099;347.4;1738;-4.97437e-06
1285.2;0.263763;348;1741;-4.97437e-06
1285.8;0.263367;348.6;1744;-1.00708e-06
1286.4;0.26297;349.2;1747;-1.43433e-06
1287;0.262634;349.8;1750;-3.60107e-06
1287.6;0.262329;350.4;1753;-5.24902e-06
1288.2;0.261963;351;1756;-4.97437e-06
1288.8;0.261536;351.6;1759;-3.50952e-06
1289.4;0.261139;352.2;1762;-5.06592e-06
1290;0.260773;352.8;1765;-2.53296e-06
1290.6;0.260437;353.4;1768;-1.70898e-06
1291.2;0.26004;354;1771;-1.98364e-06
1291.8;0.259644;354.6;1774;-2.50244e-06
1292.4;0.259308;355.2;1777;-3.11279e-06
1293;0.258972;355.8;1780;-4.21143e-06
1293.6;0.258636;356.4;1783;-5.5542e-06
1294.2;0.258301;357;1786;-4.42505e-06
1294.8;0.257965;357.6;1789;-2.41089e-06
1295.4;0.257629;358.2;1792;-1.40381e-06
1296;0.257294;358.8;1795;-3.75366e-06
1296.6;0.256989;359.4;1798;-5.64575e-06
1297.2;0.256592;360;1801;-5.43213e-06
1297.8;0.256226;360.6;1804;-3.05176e-06
1298.4;0.255859;361.2;1807;-3.41797e-06
1299;0.255493;361.8;1810;-4.24194e-06
1299.6;0.255066;362.4;1813;-4.63867e-06
1300.2;0.2547;363;1816;-5.43213e-06
1300.8;0.254272;363.6;1819;-2.83813e-06
1301.4;0.253876;364.2;1822;-2.44141e-06
1302;0.25351;364.8;1825;-3.20435e-06
1302.6;0.253143;365.4;1828;-3.9978e-06
1303.2;0.252808;366;1831;-5.24902e-06
1303.8;0.252441;366.6;1834;-4.66919e-06
1304.4;0.252075;367.2;1837;-3.50952e-06
1305;0.251709;367.8;1840;-3.2959e-06
1305.6;0.251282;368.4;1843;-5.09644e-06
1306.2;0.250916;369;1846;-5.31006e-06
1306.8;0.250519;369.6;1849;-4.73022e-06
1307.4;0.250183;370.2;1852;-3.26538e-06
1308;0.249817;370.8;1855;-3.17383e-06
1308.6;0.249451;371.4;1858;-5.21851e-06
1309.2;0.249054;372;1861;-3.2959e-06
1309.8;0.248657;372.6;1864;-2.89917e-06
1310.4;0.248322;373.2;1867;-3.41797e-06
1311;0.247986;373.8;1870;-1.89209e-06
1311.6;0.24762;374.4;1873;-5.34058e-06
1312.2;0.247223;375;1876;-3.17383e-06
1312.8;0.246857;375.6;1879;-1.86157e-06
1313.4;0.246521;376.2;1882;-2.99072e-06
1314;0.246155;376.8;1885;-4.02832e-06
1314.6;0.245728;377.4;1888;-3.66211e-06
1315.2;0.245331;378;1891;-4.45557e-06
1315.8;0.244995;378.6;1894;-3.90625e-06
1316.4;0.244568;379.2;1897;-4.39453e-06
1317;0.244202;379.8;1900;-4.60815e-06
1317.6;0.243835;380.4;1903;-2.92969e-06
1318.2;0.243469;381;1906;-2.13623e-06
1318.8;0.243073;381.6;1909;-2.96021e-06
1319.4;0.242737;382.2;1912;-2.80762e-06
1320;0.24231;382.8;1915;-5.06592e-06
1320.6;0.241943;383.4;1918;-3.41797e-06
1321.2;0.241516;384;1921;-2.56348e-06
1321.8;0.241119;384.6;1924;-2.74658e-06
1322.4;0.240723;385.2;1927;-3.38745e-06
1323;0.240326;385.8;1930;-2.13623e-06
1323.6;0.23996;386.4;1933;-5.06592e-06
1324.2;0.239594;387;1936;-2.28882e-06
1324.8;0.239197;387.6;1939;-2.53296e-06
1325.4;0.238861;388.2;1942;-5.12695e-06
1326;0.238464;388.8;1945;-4.21143e-06
1326.6;0.238129;389.4;1948;-3.78418e-06
1327.2;0.237823;390;1951;-1.64795e-06
1327.8;0.237488;390.6;1954;-1.92261e-06
1328.4;0.237183;391.2;1957;-2.62451e-06
1329;0.236816;391.8;1960;-4.15039e-06
1329.6;0.236542;392.4;1963;-3.2959e-06
1330.2;0.236206;393;1966;-2.83813e-06
1330.8;0.235901;393.6;1969;-4.97437e-06
1331.4;0.235565;394.2;1972;-3.72314e-06
1332;0.235229;394.8;1975;-3.11279e-06
1332.6;0.234863;395.4;1978;-3.23486e-06
1333.2;0.234528;396;1981;-2.19727e-06
1333.8;0.234222;396.6;1984;-5.18799e-06
1334.4;0.233917;397.2;1987;-3.63159e-06
1335;0.233582;397.8;1990;-2.71606e-06
1335.6;0.233246;398.4;1993;-5.00488e-06
1336.2;0.23291;399;1996;-2.01416e-06
1336.8;0.232574;399.6;1999;-1.70898e-06
1337.4;0.232239;400.2;2002;-4.60815e-06
1338;0.231842;400.8;2005;-5.46265e-06
1338.6;0.231537;401.4;2008;-2.22778e-06
1339.2;0.231171;402;2011;-2.99072e-06
1339.8;0.230865;402.6;2014;-3.9978e-06
1340.4;0.23053;403.2;2017;-2.13623e-06
1341;0.230194;403.8;2020;-5.5542e-06
1341.6;0.229889;404.4;2023;-5.15747e-06
1342.2;0.229553;405;2026;-2.31934e-06
1342.8;0.229218;405.6;2029;-6.13403e-06
1343.4;0.228882;406.2;2032;-4.79126e-06
1344;0.228577;406.8;2035;-3.479e-06
1344.6;0.228302;407.4;2038;-5.58472e-06
1345.2;0.227997;408;2041;-4.69971e-06
1345.8;0.227692;408.6;2044;-4.63867e-06
1346.4;0.227386;409.2;2047;-4.3335e-06
1347;0.227081;409.8;2050;-5.15747e-06
1347.6;0.226746;410.4;2053;-1.31226e-06
1348.2;0.22641;411;2056;-1.80054e-06
1348.8;0.226074;411.6;2059;-4.82178e-06
1349.4;0.225769;412.2;2062;-3.479e-06
1350;0.225433;412.8;2065;-2.86865e-06
1350.6;0.225128;413.4;2068;-2.50244e-06
1351.2;0.224823;414;2071;-2.74658e-06
1351.8;0.224487;414.6;2074;-2.62451e-06
1352.4;0.224182;415.2;2077;-3.57056e-06
1353;0.223877;415.8;2080;-2.65503e-06
1353.6;0.223541;416.4;2083;-3.60107e-06
1354.2;0.223206;417;2086;-4.94385e-06
1354.8;0.2229;417.6;2089;-3.90625e-06
1355.4;0.222595;418.2;2092;-2.34985e-06
1356;0.22226;418.8;2095;-4.85229e-06
1356.6;0.221954;419.4;2098;-3.93677e-06
1357.2;0.22171;420;2101;-2.7771e-06
1357.8;0.221436;420.6;2104;-1.70898e-06
1358.4;0.221161;421.2;2107;-1.06812e-06
1359;0.220886;421.8;2110;-5.92041e-06
1359.6;0.220642;422.4;2113;-3.66211e-07
1360.2;0.220367;423;2116;-3.96729e-06
1360.8;0.220123;423.6;2119;-1.19019e-06
1361.4;0.219879;424.2;2122;-2.19727e-06
1362;0.219635;424.8;2125;-5.43213e-06
1362.6;0.219421;425.4;2128;-1.64795e-06
1363.2;0.219177;426;2131;-2.92969e-06
1363.8;0.218903;426.6;2134;-4.88281e-06
1364.4;0.218658;427.2;2137;-2.10571e-06
1365;0.218384;427.8;2140;-5.49316e-06
1365.6;0.218079;428.4;2143;-5.46265e-06
1366.2;0.217804;429;2146;-2.0752e-06
1366.8;0.21756;429.6;2149;-4.48608e-06
1367.4;0.217224;430.2;2152;-4.94385e-06
1368;0.216919;430.8;2155;-1.86157e-06
1368.6;0.216644;431.4;2158;-1.80054e-06
1369.2;0.216309;432;2161;-2.44141e-06
1369.8;0.216034;432.6;2164;-2.13623e-06
1370.4;0.215729;433.2;2167;-2.56348e-06
1371;0.215424;433.8;2170;-5.67627e-06
1371.6;0.215149;434.4;2173;-5.92041e-06
1372.2;0.214813;435;2176;-5.88989e-06
1372.8;0.214508;435.6;2179;-6.13403e-06
1373.4;0.214203;436.2;2182;-2.80762e-06
1374;0.213867;436.8;2185;-5.31006e-06
1374.6;0.213562;437.4;2188;-2.19727e-06
1375.2;0.213287;438;2191;-3.26538e-06
1375.8;0.213013;438.6;2194;-2.13623e-06
1376.4;0.212677;439.2;2197;-2.0752e-06
1377;0.212341;439.8;2200;-2.96021e-06
1377.6;0.212097;440.4;2203;-4.39453e-06
1378.2;0.211792;441;2206;-2.10571e-06
1378.8;0.211548;441.6;2209;-3.60107e-06
1379.4;0.211243;442.2;2212;-4.48608e-06
1380;0.2109375;442.8;2215;-3.9978e-06
1380.6;0.210632;443.4;2218;-3.38745e-06
1381.2;0.210327;444;2221;-4.02832e-06
1381.8;0.210022;444.6;2224;-2.68555e-06
1382.4;0.209686;445.2;2227;-2.16675e-06
1383;0.209412;445.8;2230;-3.08228e-06
1383.6;0.209106;446.4;2233;-3.96729e-06
1384.2;0.208832;447;2236;-4.57764e-06
1384.8;0.208496;447.6;2239;-3.66211e-06
1385.4;0.208191;448.2;2242;-4.15039e-06
1386;0.207855;448.8;2245;-2.56348e-06
1386.6;0.20755;449.4;2248;-4.3335e-06
1387.2;0.207275;450;2251;-4.88281e-06
1387.8;0.207001;450.6;2254;-4.3335e-06
1388.4;0.206726;451.2;2257;-2.13623e-06
1389;0.206451;451.8;2260;-4.15039e-06
1389.6;0.206146;452.4;2263;-3.54004e-06
1390.2;0.205872;453;2266;-2.31934e-06
1390.8;0.205627;453.6;2269;-5.76782e-06
1391.4;0.205383;454.2;2272;-3.75366e-06
1392;0.2052;454.8;2275;-2.44141e-06
1392.6;0.204956;455.4;2278;-2.65503e-06
1393.2;0.204742;456;2281;-4.27246e-06
1393.8;0.204529;456.6;2284;-5.24902e-06
1394.4;0.204285;457.2;2287;-2.96021e-06
1395;0.20401;457.8;2290;-3.2959e-06
1395.6;0.203735;458.4;2293;-3.32642e-06
1396.2;0.203461;459;2296;-1.83105e-06
1396.8;0.203186;459.6;2299;-3.63159e-06
1397.4;0.202972;460.2;2302;-3.32642e-06
1398;0.202667;460.8;2305;-2.96021e-06
1398.6;0.202393;461.4;2308;-5.67627e-06
1399.2;0.202026;462;2311;-5.52368e-06
1399.8;0.201752;462.6;2314;-5.67627e-06
1400.4;0.201447;463.2;2317;-2.65503e-06
1401;0.201141;463.8;2320;-1.80054e-06
1401.6;0.200806;464.4;2323;-3.75366e-06
1402.2;0.200562;465;2326;-4.82178e-06
1402.8;0.200287;465.6;2329;-3.9978e-06
1403.4;0.200073;466.2;2332;-4.3335e-06
1404;0.199799;466.8;2335;-1.92261e-06
1404.6;0.199524;467.4;2338;-4.05884e-06
1405.2;0.19928;468;2341;-1.95313e-06
1405.8;0.198944;468.6;2344;-5.88989e-06
1406.4;0.19873;469.2;2347;-4.91333e-06
1407;0.198517;469.8;2350;-3.93677e-06
1407.6;0.198273;470.4;2353;-3.54004e-06
1408.2;0.198029;471;2356;-2.99072e-06
1408.8;0.197815;471.6;2359;-3.20435e-06
1409.4;0.197571;472.2;2362;-4.36401e-06
1410;0.197357;472.8;2365;-2.31934e-06
1410.6;0.197052;473.4;2368;-2.99072e-06
1411.2;0.196808;474;2371;-4.3335e-06
1411.8;0.196594;474.6;2374;-3.32642e-06
1412.4;0.19632;475.2;2377;-4.69971e-06
1413;0.196045;475.8;2380;-4.88281e-06
1413.6;0.195801;476.4;2383;-1.5564e-06
1414.2;0.195587;477;2386;-4.88281e-06
1414.8;0.195343;477.6;2389;-1.28174e-06
1415.4;0.195099;478.2;2392;-3.41797e-06
1416;0.194916;478.8;2395;-5.43213e-06
1416.6;0.194641;479.4;2398;-4.21143e-06
1417.2;0.194427;480;2401;-4.76074e-06
1417.8;0.194183;480.6;2404;-5.76782e-06
1418.4;0.193909;481.2;2407;-5.46265e-06
1419;0.193665;481.8;2410;-1.43433e-06
1419.6;0.19342;482.4;2413;-1.83105e-06
1420.2;0.193207;483;2416;-3.479e-06
1420.8;0.192963;483.6;2419;-3.2959e-06
1421.4;0.192719;484.2;2422;-3.54004e-06
1422;0.192474;484.8;2425;-3.35693e-06
1422.6;0.19223;485.4;2428;-4.69971e-06
1423.2;0.191986;486;2431;-2.96021e-06
1423.8;0.191742;486.6;2434;-4.5166e-06
1424.4;0.191528;487.2;2437;-5.40161e-06
1425;0.191254;487.8;2440;-2.7771e-06
1425.6;0.19104;488.4;2443;-3.23486e-06
1426.2;0.190826;489;2446;-3.93677e-06
1426.8;0.190582;489.6;2449;-4.15039e-06
1427.4;0.190369;490.2;2452;-3.41797e-06
1428;0.190155;490.8;2455;-2.62451e-06
1428.6;0.189941;491.4;2458;-4.08936e-06
1429.2;0.189728;492;2461;-4.94385e-06
1429.8;0.189484;492.6;2464;-2.83813e-06
1430.4;0.189209;493.2;2467;-5.88989e-06
1431;0.188934;493.8;2470;-4.42505e-06
1431.6;0.18869;494.4;2473;-3.50952e-06
1432.2;0.188507;495;2476;-1.58691e-06
1432.8;0.188293;495.6;2479;-4.30298e-06
1433.4;0.18808;496.2;2482;-4.39453e-06
1434;0.187836;496.8;2485;-4.60815e-06
1434.6;0.187622;497.4;2488;-3.23486e-06
1435.2;0.187408;498;2491;-4.08936e-06
1435.8;0.187195;498.6;2494;-4.27246e-06
1436.4;0.187012;499.2;2497;-3.66211e-06
1437;0.186798;499.8;2500;-4.21143e-06
1437.6;0.186615;500.4;2503;-1.64795e-06
1438.2;0.186493;501;2506;-3.41797e-06
1438.8;0.186371;501.6;2509;-4.57764e-06
1439.4;0.186188;502.2;2512;-4.21143e-06
1440;0.186066;502.8;2515;-4.08936e-06
1440.6;0.185883;503.4;2518;-5.06592e-06
1441.2;0.185699;504;2521;-3.41797e-06
1441.8;0.185486;504.6;2524;-1.98364e-06
1442.4;0.185303;505.2;2527;-1.46484e-06
1443;0.18515;505.8;2530;-2.86865e-06
1443.6;0.184967;506.4;2533;-2.92969e-06
1444.2;0.184753;507;2536;-2.56348e-06
1444.8;0.184509;507.6;2539;-4.94385e-06
1445.4;0.184357;508.2;2542;-1.06812e-06
1446;0.184174;508.8;2545;-5.12695e-06
1446.6;0.18399;509.4;2548;-5.06592e-06
1447.2;0.183807;510;2551;-3.66211e-06
1447.8;0.183594;510.6;2554;-1.12915e-06
1448.4;0.18338;511.2;2557;-2.0752e-06
1449;0.183167;511.8;2560;-3.87573e-06
1449.6;0.182983;512.4;2563;-3.93677e-06
1450.2;0.182831;513;2566;-1.49536e-06
1450.8;0.182587;513.6;2569;-1.52588e-06
1451.4;0.182312;514.2;2572;-3.78418e-06
1452;0.182098;514.8;2575;-2.04468e-06
1452.6;0.181854;515.4;2578;-2.92969e-06
1453.2;0.181641;516;2581;-3.8147e-06
1453.8;0.181427;516.6;2584;-5.15747e-06
1454.4;0.181213;517.2;2587;-3.41797e-06
1455;0.181;517.8;2590;-3.87573e-06
1455.6;0.180756;518.4;2593;-1.89209e-06
1456.2;0.180481;519;2596;-4.79126e-06
1456.8;0.180206;519.6;2599;-4.11987e-06
1457.4;0.179962;520.2;2602;-4.15039e-06
1458;0.179718;520.8;2605;-3.54004e-06
1458.6;0.179474;521.4;2608;-2.44141e-06
1459.2;0.179291;522;2611;-4.11987e-06
1459.8;0.179108;522.6;2614;-3.02124e-06
1460.4;0.178925;523.2;2617;-2.86865e-06
1461;0.178711;523.8;2620;-3.93677e-06
1461.6;0.178436;524.4;2623;-2.53296e-06
1462.2;0.178223;525;2626;-4.27246e-06
1462.8;0.17804;525.6;2629;-2.34985e-06
1463.4;0.177765;526.2;2632;-1.61743e-06
1464;0.177551;526.8;2635;-2.41089e-06
1464.6;0.177338;527.4;2638;-4.82178e-06
1465.2;0.177124;528;2641;-3.35693e-06
1465.8;0.17688;528.6;2644;-2.31934e-06
1466.4;0.176666;529.2;2647;-1.70898e-06
1467;0.176453;529.8;2650;-1.58691e-06
1467.6;0.176239;530.4;2653;-3.93677e-06
1468.2;0.176025;531;2656;-4.5166e-06
1468.8;0.175812;531.6;2659;-2.80762e-06
1469.4;0.175598;532.2;2662;-2.47192e-06
1470;0.175354;532.8;2665;-5.85937e-06
1470.6;0.17514;533.4;2668;-4.45557e-06
1471.2;0.174927;534;2671;-1.83105e-06
1471.8;0.174713;534.6;2674;-4.82178e-06
1472.4;0.1745;535.2;2677;-4.11987e-06
1473;0.174347;535.8;2680;-1.70898e-06
1473.6;0.174194;536.4;2683;-1.46484e-06
1474.2;0.174011;537;2686;-3.50952e-06
1474.8;0.173889;537.6;2689;-1.80054e-06
1475.4;0.173767;538.2;2692;-3.93677e-06
1476;0.173615;538.8;2695;-5.82886e-06
1476.6;0.173462;539.4;2698;-2.13623e-06
1477.2;0.173248;540;2701;-3.479e-06
1477.4;0.173157;540.2;2702;-5.37109e-06