File: CDMXene2-1Ag-1DESCARGA.txt
Time (s);WE(1).Potential (V);Corrected time (s);Index;WE(1).Current (A);Current range
144.46;0.837402;0;1;-4.21143e-06;10 mA
145.06;0.823364;0.6;4;-5.79834e-07;10 mA
145.66;0.813599;1.2;7;-2.7771e-06;10 mA
146.26;0.805664;1.8;10;-1.95313e-06;10 mA
146.86;0.79895;2.4;13;-3.2959e-06;10 mA
147.46;0.792847;3;16;-4.15039e-06;10 mA
148.06;0.787354;3.6;19;-3.32642e-06;10 mA
148.66;0.78186;4.2;22;-4.15039e-06;10 mA
149.26;0.777283;4.8;25;-1.80054e-06;10 mA
149.86;0.7724;5.4;28;-1.70898e-06;10 mA
150.46;0.768127;6;31;-2.68555e-06;10 mA
151.06;0.763855;6.6;34;-1.2207e-06;10 mA
151.66;0.759583;7.2;37;-9.15527e-07;10 mA
152.26;0.75531;7.8;40;-3.26538e-06;10 mA
152.86;0.751343;8.4;43;-1.7395e-06;10 mA
153.46;0.747375;9;46;-4.11987e-06;10 mA
154.06;0.743713;9.6;49;-3.41797e-06;10 mA
154.66;0.740051;10.2;52;-4.3335e-06;10 mA
155.26;0.736389;10.8;55;-1.28174e-06;10 mA
155.86;0.733032;11.4;58;-2.59399e-06;10 mA
156.46;0.729675;12;61;-4.05884e-06;10 mA
157.06;0.726318;12.6;64;-1.80054e-06;10 mA
157.66;0.722961;13.2;67;-2.38037e-06;10 mA
158.26;0.719604;13.8;70;-3.84521e-06;10 mA
158.86;0.716553;14.4;73;-1.09863e-06;10 mA
159.46;0.713196;15;76;-1.95313e-06;10 mA
160.06;0.710144;15.6;79;-6.10352e-07;10 mA
160.66;0.707092;16.2;82;-2.13623e-06;10 mA
161.26;0.704041;16.8;85;-3.20435e-06;10 mA
161.86;0.700989;17.4;88;-4.45557e-06;10 mA
162.46;0.698242;18;91;-1.58691e-06;10 mA
163.06;0.695496;18.6;94;-2.99072e-06;10 mA
163.66;0.692749;19.2;97;-4.76074e-06;10 mA
164.26;0.690002;19.8;100;-2.74658e-06;10 mA
164.86;0.687256;20.4;103;-3.38745e-06;10 mA
165.46;0.684509;21;106;-2.13623e-06;10 mA
166.06;0.681763;21.6;109;-5.40161e-06;10 mA
166.66;0.679016;22.2;112;-8.54492e-07;10 mA
167.26;0.676575;22.8;115;-3.8147e-06;10 mA
167.86;0.673828;23.4;118;-2.7771e-06;10 mA
168.46;0.671387;24;121;-4.05884e-06;10 mA
169.06;0.668945;24.6;124;-2.56348e-06;10 mA
169.66;0.666504;25.2;127;-3.35693e-06;10 mA
170.26;0.664368;25.8;130;-2.74658e-06;10 mA
170.86;0.661926;26.4;133;-4.63867e-06;10 mA
171.46;0.659485;27;136;-3.93677e-06;10 mA
172.06;0.657349;27.6;139;-4.15039e-06;10 mA
172.66;0.655212;28.2;142;-4.88281e-06;10 mA
173.26;0.653076;28.8;145;-2.50244e-06;10 mA
173.86;0.65094;29.4;148;-3.02124e-06;10 mA
174.46;0.648499;30;151;-4.66919e-06;10 mA
175.06;0.646362;30.6;154;-1.0376e-06;10 mA
175.66;0.644226;31.2;157;-5.18799e-06;10 mA
176.26;0.64209;31.8;160;-2.04468e-06;10 mA
176.86;0.639954;32.4;163;-3.38745e-06;10 mA
177.46;0.637817;33;166;-5.34058e-06;10 mA
178.06;0.635681;33.6;169;-1.5564e-06;10 mA
178.66;0.633545;34.2;172;-2.28882e-06;10 mA
179.26;0.631409;34.8;175;-4.94385e-06;10 mA
179.86;0.629578;35.4;178;-3.66211e-07;10 mA
180.46;0.627747;36;181;-1.15967e-06;10 mA
181.06;0.62561;36.6;184;-3.08228e-06;10 mA
181.66;0.623779;37.2;187;-8.8501e-07;10 mA
182.26;0.621948;37.8;190;-3.41797e-06;10 mA
182.86;0.620117;38.4;193;-2.04468e-06;10 mA
183.46;0.618286;39;196;-2.34985e-06;10 mA
184.06;0.61615;39.6;199;-2.38037e-06;10 mA
184.66;0.614319;40.2;202;-4.42505e-06;10 mA
185.26;0.612183;40.8;205;-4.30298e-06;10 mA
185.86;0.610352;41.4;208;-3.479e-06;10 mA
186.46;0.608521;42;211;-2.04468e-06;10 mA
187.06;0.606689;42.6;214;-3.75366e-06;10 mA
187.66;0.604858;43.2;217;-1.95313e-06;10 mA
188.26;0.603027;43.8;220;-2.44141e-06;10 mA
188.86;0.601196;44.4;223;-2.22778e-06;10 mA
189.46;0.599365;45;226;-4.27246e-07;10 mA
190.06;0.597534;45.6;229;-1.61743e-06;10 mA
190.66;0.595703;46.2;232;-4.94385e-06;10 mA
191.26;0.593872;46.8;235;-1.15967e-06;10 mA
191.86;0.592346;47.4;238;-4.42505e-06;10 mA
192.46;0.590515;48;241;-2.47192e-06;10 mA
193.06;0.588989;48.6;244;-1.2207e-06;10 mA
193.66;0.587158;49.2;247;-3.72314e-06;10 mA
194.26;0.585327;49.8;250;-2.74658e-06;10 mA
194.86;0.583801;50.4;253;-3.41797e-06;10 mA
195.46;0.582275;51;256;-5.00488e-06;10 mA
196.06;0.580444;51.6;259;-5.00488e-06;10 mA
196.66;0.578918;52.2;262;-2.19727e-06;10 mA
197.26;0.577087;52.8;265;-5.00488e-06;10 mA
197.86;0.575562;53.4;268;-2.65503e-06;10 mA
198.46;0.574036;54;271;-4.02832e-06;10 mA
199.06;0.572205;54.6;274;-5.46265e-06;10 mA
199.66;0.570679;55.2;277;-3.02124e-06;10 mA
200.26;0.569153;55.8;280;-4.08936e-06;10 mA
200.86;0.567627;56.4;283;-2.56348e-06;10 mA
201.46;0.566101;57;286;-1.5564e-06;10 mA
202.06;0.56427;57.6;289;-3.479e-06;10 mA
202.66;0.562744;58.2;292;-3.11279e-06;10 mA
203.26;0.561218;58.8;295;-3.72314e-06;10 mA
203.86;0.559692;59.4;298;-1.52588e-06;10 mA
204.46;0.558167;60;301;-3.32642e-06;10 mA
205.06;0.556641;60.6;304;-2.31934e-06;10 mA
205.66;0.55542;61.2;307;-3.96729e-06;10 mA
206.26;0.553894;61.8;310;-2.74658e-06;10 mA
206.86;0.552368;62.4;313;-2.2583e-06;10 mA
207.46;0.550842;63;316;-1.61743e-06;10 mA
208.06;0.549316;63.6;319;-2.53296e-06;10 mA
208.66;0.548096;64.2;322;-3.50952e-06;10 mA
209.26;0.54657;64.8;325;-5.09644e-06;10 mA
209.86;0.545044;65.4;328;-1.95313e-06;10 mA
210.46;0.543518;66;331;-3.9978e-06;10 mA
211.06;0.542297;66.6;334;-2.41089e-06;10 mA
211.66;0.540771;67.2;337;-4.63867e-06;10 mA
212.26;0.539551;67.8;340;-4.63867e-06;10 mA
212.86;0.538025;68.4;343;-4.36401e-06;10 mA
213.46;0.536804;69;346;-2.71606e-06;10 mA
214.06;0.535583;69.6;349;-1.31226e-06;10 mA
214.66;0.534058;70.2;352;-3.17383e-06;10 mA
215.26;0.532837;70.8;355;-1.77002e-06;10 mA
215.86;0.531616;71.4;358;-2.56348e-06;10 mA
216.46;0.53009;72;361;-3.66211e-06;10 mA
217.06;0.528564;72.6;364;-3.9978e-06;10 mA
217.66;0.527344;73.2;367;-2.74658e-06;10 mA
218.26;0.526123;73.8;370;-3.84521e-06;10 mA
218.86;0.524902;74.4;373;-5.0354e-06;10 mA
219.46;0.523376;75;376;-4.63867e-06;10 mA
220.06;0.522156;75.6;379;-4.27246e-06;10 mA
220.66;0.52063;76.2;382;-4.66919e-06;10 mA
221.26;0.519409;76.8;385;-4.30298e-06;10 mA
221.86;0.518188;77.4;388;-4.3335e-06;10 mA
222.46;0.516663;78;391;-4.24194e-06;10 mA
223.06;0.515442;78.6;394;-5.18799e-06;10 mA
223.66;0.514221;79.2;397;-3.96729e-06;10 mA
224.26;0.512695;79.8;400;-3.54004e-06;10 mA
224.86;0.511475;80.4;403;-1.95313e-06;10 mA
225.46;0.510254;81;406;-3.05176e-06;10 mA
226.06;0.509033;81.6;409;-4.66919e-06;10 mA
226.66;0.5078125;82.2;412;-3.87573e-06;10 mA
227.26;0.506287;82.8;415;-3.02124e-06;10 mA
227.86;0.505371;83.4;418;-1.83105e-06;10 mA
228.46;0.50415;84;421;-5.12695e-06;10 mA
229.06;0.50293;84.6;424;-3.23486e-06;10 mA
229.66;0.501709;85.2;427;-1.34277e-06;10 mA
230.26;0.500488;85.8;430;-4.76074e-06;10 mA
230.86;0.499481;86.4;433;-3.78418e-06;10 mA
231.46;0.498352;87;436;-3.2959e-06;10 mA
232.06;0.497223;87.6;439;-2.16675e-06;10 mA
232.66;0.496033;88.2;442;-1.34277e-06;10 mA
233.26;0.494843;88.8;445;-2.92969e-06;10 mA
233.86;0.493683;89.4;448;-4.88281e-06;10 mA
234.46;0.492523;90;451;-4.63867e-06;10 mA
235.06;0.491394;90.6;454;-1.40381e-06;10 mA
235.66;0.490234;91.2;457;-3.35693e-06;10 mA
236.26;0.489166;91.8;460;-1.46484e-06;10 mA
236.86;0.488068;92.4;463;-1.46484e-06;10 mA
237.46;0.486969;93;466;-1.61743e-06;10 mA
238.06;0.485901;93.6;469;-4.05884e-06;10 mA
238.66;0.484833;94.2;472;-4.82178e-06;10 mA
239.26;0.483795;94.8;475;-5.5542e-06;10 mA
239.86;0.482819;95.4;478;-2.80762e-06;10 mA
240.46;0.48175;96;481;-4.02832e-06;10 mA
241.06;0.480774;96.6;484;-1.2207e-06;10 mA
241.66;0.479736;97.2;487;-4.39453e-06;10 mA
242.26;0.478729;97.8;490;-5.12695e-06;10 mA
242.86;0.477783;98.4;493;-3.66211e-06;10 mA
243.46;0.476807;99;496;-2.68555e-06;10 mA
244.06;0.47583;99.6;499;-3.14331e-06;10 mA
244.66;0.474854;100.2;502;-4.11987e-06;10 mA
245.26;0.473907;100.8;505;-2.38037e-06;10 mA
245.86;0.472992;101.4;508;-3.44849e-06;10 mA
246.46;0.471985;102;511;-4.82178e-06;10 mA
247.06;0.471039;102.6;514;-2.0752e-06;10 mA
247.66;0.470154;103.2;517;-3.02124e-06;10 mA
248.26;0.469269;103.8;520;-3.96729e-06;10 mA
248.86;0.468353;104.4;523;-2.99072e-06;10 mA
249.46;0.467468;105;526;-7.93457e-07;10 mA
250.06;0.466553;105.6;529;-1.83105e-06;10 mA
250.66;0.465637;106.2;532;-2.16675e-06;10 mA
251.26;0.464722;106.8;535;-1.86157e-06;10 mA
251.86;0.463806;107.4;538;-4.73022e-06;10 mA
252.46;0.462921;108;541;-2.83813e-06;10 mA
253.06;0.462067;108.6;544;-1.52588e-06;10 mA
253.66;0.461243;109.2;547;-3.41797e-06;10 mA
254.26;0.460327;109.8;550;-3.38745e-06;10 mA
254.86;0.459442;110.4;553;-2.0752e-06;10 mA
255.46;0.458557;111;556;-1.67847e-06;10 mA
256.06;0.457733;111.6;559;-4.36401e-06;10 mA
256.66;0.456909;112.2;562;-1.58691e-06;10 mA
257.26;0.456055;112.8;565;-3.87573e-06;10 mA
257.86;0.455231;113.4;568;-3.90625e-06;10 mA
258.46;0.454407;114;571;-4.88281e-06;10 mA
259.06;0.453613;114.6;574;-3.41797e-06;10 mA
259.66;0.45285;115.2;577;-1.5564e-06;10 mA
260.26;0.451996;115.8;580;-3.50952e-06;10 mA
260.86;0.451141;116.4;583;-3.87573e-06;10 mA
261.46;0.450348;117;586;-3.14331e-06;10 mA
262.06;0.449585;117.6;589;-3.35693e-06;10 mA
262.66;0.448853;118.2;592;-1.83105e-06;10 mA
263.26;0.44809;118.8;595;-3.54004e-06;10 mA
263.86;0.447296;119.4;598;-2.92969e-06;10 mA
264.46;0.446472;120;601;-5.15747e-06;10 mA
265.06;0.445618;120.6;604;-3.63159e-06;10 mA
265.66;0.444794;121.2;607;-2.7771e-06;10 mA
266.26;0.443939;121.8;610;-4.88281e-06;10 mA
266.86;0.443115;122.4;613;-1.7395e-06;10 mA
267.46;0.442291;123;616;-4.36401e-06;10 mA
268.06;0.441467;123.6;619;-7.08008e-06;10 mA
268.66;0.440674;124.2;622;-1.37329e-06;10 mA
269.26;0.43988;124.8;625;-1.77002e-06;10 mA
269.86;0.439056;125.4;628;-3.05176e-06;10 mA
270.46;0.438263;126;631;-2.74658e-06;10 mA
271.06;0.437439;126.6;634;-9.15527e-07;10 mA
271.66;0.436676;127.2;637;-2.01416e-06;10 mA
272.26;0.435913;127.8;640;-5.52368e-06;10 mA
272.86;0.435181;128.4;643;-3.75366e-06;10 mA
273.46;0.434509;129;646;-3.72314e-06;10 mA
274.06;0.433777;129.6;649;-3.44849e-06;10 mA
274.66;0.433044;130.2;652;-2.53296e-06;10 mA
275.26;0.432312;130.8;655;-4.39453e-06;10 mA
275.86;0.431549;131.4;658;-8.54492e-07;10 mA
276.46;0.430817;132;661;-1.2207e-06;10 mA
277.06;0.430084;132.6;664;-3.32642e-06;10 mA
277.66;0.429321;133.2;667;-4.73022e-06;10 mA
278.26;0.428589;133.8;670;-4.57764e-06;10 mA
278.86;0.427856;134.4;673;-3.11279e-06;10 mA
279.46;0.427155;135;676;-4.82178e-06;10 mA
280.06;0.426392;135.6;679;-4.85229e-06;10 mA
280.66;0.425659;136.2;682;-2.80762e-06;10 mA
281.26;0.424957;136.8;685;-3.08228e-06;10 mA
281.86;0.424286;137.4;688;-6.71387e-07;10 mA
282.46;0.423615;138;691;-2.65503e-06;10 mA
283.06;0.422882;138.6;694;-3.38745e-06;10 mA
283.66;0.422211;139.2;697;-3.72314e-06;10 mA
284.26;0.421509;139.8;700;-4.54712e-06;10 mA
284.86;0.420807;140.4;703;-3.66211e-06;10 mA
285.46;0.420135;141;706;-4.76074e-06;10 mA
286.06;0.419403;141.6;709;-4.69971e-06;10 mA
286.66;0.418701;142.2;712;-3.44849e-06;10 mA
287.26;0.41806;142.8;715;-3.35693e-06;10 mA
287.86;0.417419;143.4;718;-5.09644e-06;10 mA
288.46;0.416779;144;721;-2.28882e-06;10 mA
289.06;0.416138;144.6;724;-2.86865e-06;10 mA
289.66;0.415466;145.2;727;-1.5564e-06;10 mA
290.26;0.414795;145.8;730;-1.67847e-06;10 mA
290.86;0.414124;146.4;733;-2.92969e-06;10 mA
291.46;0.413513;147;736;-2.01416e-06;10 mA
292.06;0.412842;147.6;739;-6.40869e-07;10 mA
292.66;0.412231;148.2;742;-2.59399e-06;10 mA
293.26;0.411621;148.8;745;-2.96021e-06;10 mA
293.86;0.411011;149.4;748;-3.41797e-06;10 mA
294.46;0.4104;150;751;-2.83813e-06;10 mA
295.06;0.40976;150.6;754;-3.9978e-06;10 mA
295.66;0.409149;151.2;757;-3.02124e-06;10 mA
296.26;0.408508;151.8;760;-1.77002e-06;10 mA
296.86;0.407898;152.4;763;-4.3335e-06;10 mA
297.46;0.407349;153;766;-3.96729e-06;10 mA
298.06;0.406738;153.6;769;-3.02124e-06;10 mA
298.66;0.406158;154.2;772;-2.19727e-06;10 mA
299.26;0.405518;154.8;775;-2.74658e-06;10 mA
299.86;0.404877;155.4;778;-5.09644e-06;10 mA
300.46;0.404266;156;781;-2.10571e-06;10 mA
301.06;0.403656;156.6;784;-5.5542e-06;10 mA
301.66;0.403046;157.2;787;-1.70898e-06;10 mA
302.26;0.402405;157.8;790;-2.62451e-06;10 mA
302.86;0.401764;158.4;793;-3.57056e-06;10 mA
303.46;0.401123;159;796;-2.62451e-06;10 mA
304.06;0.400513;159.6;799;-1.7395e-06;10 mA
304.66;0.399872;160.2;802;-3.50952e-06;10 mA
305.26;0.399231;160.8;805;-3.11279e-06;10 mA
305.86;0.39859;161.4;808;-1.7395e-06;10 mA
306.46;0.397949;162;811;-2.86865e-06;10 mA
307.06;0.397339;162.6;814;-2.80762e-06;10 mA
307.66;0.396729;163.2;817;-2.59399e-06;10 mA
308.26;0.396179;163.8;820;-1.43433e-06;10 mA
308.86;0.395569;164.4;823;-1.5564e-06;10 mA
309.46;0.394958;165;826;-1.89209e-06;10 mA
310.06;0.39444;165.6;829;-2.50244e-06;10 mA
310.66;0.39389;166.2;832;-4.18091e-06;10 mA
311.26;0.393341;166.8;835;-3.17383e-06;10 mA
311.86;0.392792;167.4;838;-1.43433e-06;10 mA
312.46;0.392242;168;841;-5.27954e-06;10 mA
313.06;0.391693;168.6;844;-3.17383e-06;10 mA
313.66;0.391144;169.2;847;-1.37329e-06;10 mA
314.26;0.390594;169.8;850;-4.79126e-06;10 mA
314.86;0.390045;170.4;853;-1.83105e-07;10 mA
315.46;0.389465;171;856;-3.9978e-06;10 mA
316.06;0.388916;171.6;859;-5.58472e-06;10 mA
316.66;0.388367;172.2;862;-2.28882e-06;10 mA
317.26;0.387756;172.8;865;-4.88281e-07;10 mA
317.86;0.387207;173.4;868;-2.7771e-06;10 mA
318.46;0.386688;174;871;-2.7771e-06;10 mA
319.06;0.386169;174.6;874;-3.32642e-06;10 mA
319.66;0.385651;175.2;877;-9.15527e-07;10 mA
320.26;0.385101;175.8;880;-3.41797e-06;10 mA
320.86;0.384552;176.4;883;-5.12695e-06;10 mA
321.46;0.384064;177;886;-5.27954e-06;10 mA
322.06;0.383484;177.6;889;-5.06592e-06;10 mA
322.66;0.382935;178.2;892;-9.15527e-07;10 mA
323.26;0.382416;178.8;895;-2.62451e-06;10 mA
323.86;0.381897;179.4;898;-2.7771e-06;10 mA
324.46;0.381378;180;901;-3.41797e-06;10 mA
325.06;0.380829;180.6;904;-6.71387e-07;10 mA
325.66;0.38031;181.2;907;-7.62939e-07;10 mA
326.26;0.379761;181.8;910;-2.92969e-06;10 mA
326.86;0.379211;182.4;913;-2.74658e-06;10 mA
327.46;0.378662;183;916;-2.7771e-06;10 mA
328.06;0.378174;183.6;919;-3.479e-06;10 mA
328.66;0.377655;184.2;922;-4.02832e-06;10 mA
329.26;0.377136;184.8;925;-3.23486e-06;10 mA
329.86;0.376648;185.4;928;-5.40161e-06;10 mA
330.46;0.37616;186;931;-5.37109e-06;10 mA
331.06;0.375671;186.6;934;-3.05176e-06;10 mA
331.66;0.375153;187.2;937;-2.13623e-06;10 mA
332.26;0.374664;187.8;940;-2.74658e-06;10 mA
332.86;0.374176;188.4;943;-2.50244e-06;10 mA
333.46;0.373627;189;946;-2.74658e-06;10 mA
334.06;0.373169;189.6;949;-4.39453e-06;10 mA
334.66;0.372711;190.2;952;-4.82178e-06;10 mA
335.26;0.372223;190.8;955;-1.86157e-06;10 mA
335.86;0.371765;191.4;958;-2.86865e-06;10 mA
336.46;0.371338;192;961;-3.54004e-06;10 mA
337.06;0.37088;192.6;964;-3.66211e-06;10 mA
337.66;0.370422;193.2;967;-2.89917e-06;10 mA
338.26;0.369904;193.8;970;-2.86865e-06;10 mA
338.86;0.369415;194.4;973;-2.92969e-06;10 mA
339.46;0.368896;195;976;-4.15039e-06;10 mA
340.06;0.368439;195.6;979;-4.15039e-06;10 mA
340.66;0.367981;196.2;982;-4.88281e-06;10 mA
341.26;0.367462;196.8;985;-3.32642e-06;10 mA
341.86;0.366943;197.4;988;-4.24194e-06;10 mA
342.46;0.366516;198;991;-4.57764e-06;10 mA
343.06;0.366028;198.6;994;-2.68555e-06;10 mA
343.66;0.36554;199.2;997;-3.08228e-06;10 mA
344.26;0.365082;199.8;1000;-2.50244e-06;10 mA
344.86;0.364655;200.4;1003;-7.62939e-07;10 mA
345.46;0.364197;201;1006;-3.17383e-06;10 mA
346.06;0.363708;201.6;1009;-4.82178e-06;10 mA
346.66;0.36322;202.2;1012;-2.56348e-06;10 mA
347.26;0.362762;202.8;1015;-2.86865e-06;10 mA
347.86;0.362244;203.4;1018;-3.05176e-06;10 mA
348.46;0.361755;204;1021;-3.02124e-06;10 mA
349.06;0.361267;204.6;1024;-3.26538e-06;10 mA
349.66;0.360748;205.2;1027;-3.35693e-06;10 mA
350.26;0.360291;205.8;1030;-4.57764e-06;10 mA
350.86;0.359772;206.4;1033;-2.59399e-06;10 mA
351.46;0.359283;207;1036;-3.20435e-06;10 mA
352.06;0.358795;207.6;1039;-4.66919e-06;10 mA
352.66;0.358276;208.2;1042;-3.20435e-06;10 mA
353.26;0.357819;208.8;1045;-2.19727e-06;10 mA
353.86;0.35733;209.4;1048;-3.23486e-06;10 mA
354.46;0.356842;210;1051;-3.20435e-06;10 mA
355.06;0.356323;210.6;1054;-4.42505e-06;10 mA
355.66;0.355835;211.2;1057;-1.0376e-06;10 mA
356.26;0.355377;211.8;1060;-3.9978e-06;10 mA
356.86;0.354889;212.4;1063;-1.98364e-06;10 mA
357.46;0.354401;213;1066;-2.68555e-06;10 mA
358.06;0.353912;213.6;1069;-1.46484e-06;10 mA
358.66;0.353424;214.2;1072;-2.31934e-06;10 mA
359.26;0.352966;214.8;1075;-2.19727e-06;10 mA
359.86;0.352448;215.4;1078;-1.19019e-06;10 mA
360.46;0.35199;216;1081;-1.40381e-06;10 mA
361.06;0.351501;216.6;1084;-3.41797e-06;10 mA
361.66;0.351013;217.2;1087;-2.47192e-06;10 mA
362.26;0.350555;217.8;1090;-1.46484e-06;10 mA
362.86;0.350067;218.4;1093;-4.82178e-06;10 mA
363.46;0.34964;219;1096;-4.60815e-06;10 mA
364.06;0.349213;219.6;1099;-4.79126e-06;10 mA
364.66;0.348724;220.2;1102;-1.67847e-06;10 mA
365.26;0.348267;220.8;1105;-5.21851e-06;10 mA
365.86;0.347839;221.4;1108;-5.31006e-06;10 mA
366.46;0.347351;222;1111;-1.25122e-06;10 mA
367.06;0.346924;222.6;1114;-3.54004e-06;10 mA
367.66;0.346497;223.2;1117;-5.06592e-06;10 mA
368.26;0.346039;223.8;1120;-2.44141e-06;10 mA
368.86;0.345612;224.4;1123;-4.60815e-06;10 mA
369.46;0.345184;225;1126;-4.69971e-06;10 mA
370.06;0.344818;225.6;1129;-2.59399e-06;10 mA
370.66;0.344421;226.2;1132;-6.13403e-06;10 mA
371.26;0.344055;226.8;1135;-3.75366e-06;10 mA
371.86;0.343658;227.4;1138;-5.31006e-06;10 mA
372.46;0.343292;228;1141;-3.66211e-06;10 mA
373.06;0.342896;228.6;1144;-5.24902e-06;10 mA
373.66;0.342468;229.2;1147;-5.15747e-06;10 mA
374.26;0.34201;229.8;1150;-4.76074e-06;10 mA
374.86;0.341675;230.4;1153;-3.479e-06;10 mA
375.46;0.341278;231;1156;-1.5564e-06;10 mA
376.06;0.340912;231.6;1159;-1.83105e-06;10 mA
376.66;0.340515;232.2;1162;-3.32642e-06;10 mA
377.26;0.340149;232.8;1165;-4.15039e-06;10 mA
377.86;0.339752;233.4;1168;-3.35693e-06;10 mA
378.46;0.339355;234;1171;-2.7771e-06;10 mA
379.06;0.338928;234.6;1174;-4.30298e-06;10 mA
379.66;0.338531;235.2;1177;-1.61743e-06;10 mA
380.26;0.338074;235.8;1180;-3.38745e-06;10 mA
380.86;0.337646;236.4;1183;-4.85229e-06;10 mA
381.46;0.337219;237;1186;-6.86646e-06;10 mA
382.06;0.336792;237.6;1189;-3.44849e-06;10 mA
382.66;0.336365;238.2;1192;-2.68555e-06;10 mA
383.26;0.3359375;238.8;1195;-5.12695e-06;10 mA
383.86;0.33548;239.4;1198;-3.17383e-06;10 mA
384.46;0.335022;240;1201;-3.57056e-06;10 mA
385.06;0.334534;240.6;1204;-5.27954e-06;10 mA
385.66;0.334106;241.2;1207;-4.54712e-06;10 mA
386.26;0.333679;241.8;1210;-2.47192e-06;10 mA
386.86;0.333252;242.4;1213;-3.9978e-06;10 mA
387.46;0.332794;243;1216;-4.24194e-06;10 mA
388.06;0.332336;243.6;1219;-2.86865e-06;10 mA
388.66;0.331879;244.2;1222;-3.20435e-06;10 mA
389.26;0.331482;244.8;1225;-1.49536e-06;10 mA
389.86;0.331085;245.4;1228;-1.83105e-06;10 mA
390.46;0.330688;246;1231;-3.66211e-06;10 mA
391.06;0.330231;246.6;1234;-2.34985e-06;10 mA
391.66;0.329834;247.2;1237;-2.2583e-06;10 mA
392.26;0.329407;247.8;1240;-2.80762e-06;10 mA
392.86;0.32901;248.4;1243;-3.72314e-06;10 mA
393.46;0.328644;249;1246;-5.0354e-06;10 mA
394.06;0.328278;249.6;1249;-2.16675e-06;10 mA
394.66;0.327942;250.2;1252;-2.62451e-06;10 mA
395.26;0.327576;250.8;1255;-3.54004e-06;10 mA
395.86;0.327179;251.4;1258;-3.20435e-06;10 mA
396.46;0.326752;252;1261;-2.86865e-06;10 mA
397.06;0.326294;252.6;1264;-1.7395e-06;10 mA
397.66;0.325867;253.2;1267;-3.57056e-06;10 mA
398.26;0.325439;253.8;1270;-3.17383e-06;10 mA
398.86;0.324982;254.4;1273;-1.95313e-06;10 mA
399.46;0.324524;255;1276;-3.35693e-06;10 mA
400.06;0.324066;255.6;1279;-4.69971e-06;10 mA
400.66;0.323669;256.2;1282;-3.66211e-06;10 mA
401.26;0.323242;256.8;1285;-2.16675e-06;10 mA
401.86;0.322815;257.4;1288;-3.11279e-06;10 mA
402.46;0.322388;258;1291;-5.12695e-06;10 mA
403.06;0.32193;258.6;1294;-5.31006e-06;10 mA
403.66;0.321533;259.2;1297;-2.74658e-06;10 mA
404.26;0.321106;259.8;1300;-1.37329e-06;10 mA
404.86;0.320709;260.4;1303;-6.43921e-06;10 mA
405.46;0.3203125;261;1306;-2.86865e-06;10 mA
406.06;0.319916;261.6;1309;-5.58472e-06;10 mA
406.66;0.319519;262.2;1312;-2.83813e-06;10 mA
407.26;0.319122;262.8;1315;-4.73022e-06;10 mA
407.86;0.318695;263.4;1318;-2.92969e-06;10 mA
408.46;0.318298;264;1321;-1.80054e-06;10 mA
409.06;0.317932;264.6;1324;-3.05176e-06;10 mA
409.66;0.317505;265.2;1327;-4.5166e-06;10 mA
410.26;0.317108;265.8;1330;-4.69971e-06;10 mA
410.86;0.316711;266.4;1333;-4.39453e-06;10 mA
411.46;0.316254;267;1336;-3.35693e-06;10 mA
412.06;0.315948;267.6;1339;-4.88281e-07;10 mA
412.66;0.315552;268.2;1342;-1.77002e-06;10 mA
413.26;0.315186;268.8;1345;-1.80054e-06;10 mA
413.86;0.314789;269.4;1348;-4.5166e-06;10 mA
414.46;0.314362;270;1351;-1.19019e-06;10 mA
415.06;0.313934;270.6;1354;-5.67627e-06;10 mA
415.66;0.313507;271.2;1357;-1.98364e-06;10 mA
416.26;0.31308;271.8;1360;-4.21143e-06;10 mA
416.86;0.312653;272.4;1363;-3.479e-06;10 mA
417.46;0.312225;273;1366;-3.50952e-06;10 mA
418.06;0.311798;273.6;1369;-4.73022e-06;10 mA
418.66;0.311432;274.2;1372;-4.24194e-06;10 mA
419.26;0.310974;274.8;1375;-3.32642e-06;10 mA
419.86;0.310608;275.4;1378;-5.98145e-06;10 mA
420.46;0.310181;276;1381;-1.70898e-06;10 mA
421.06;0.309784;276.6;1384;-5.95093e-06;10 mA
421.66;0.309387;277.2;1387;-1.7395e-06;10 mA
422.26;0.309021;277.8;1390;-3.57056e-06;10 mA
422.86;0.308655;278.4;1393;4.88281e-07;10 mA
423.46;0.308289;279;1396;-4.45557e-06;10 mA
424.06;0.307953;279.6;1399;-3.38745e-06;10 mA
424.66;0.307617;280.2;1402;-3.17383e-06;10 mA
425.26;0.30722;280.8;1405;-1.86157e-06;10 mA
425.86;0.306793;281.4;1408;-4.57764e-06;10 mA
426.46;0.306396;282;1411;-2.19727e-06;10 mA
427.06;0.30603;282.6;1414;-3.66211e-06;10 mA
427.66;0.305634;283.2;1417;-2.50244e-06;10 mA
428.26;0.305237;283.8;1420;-5.64575e-06;10 mA
428.86;0.30484;284.4;1423;-3.32642e-06;10 mA
429.46;0.304413;285;1426;-6.89697e-06;10 mA
430.06;0.303986;285.6;1429;-7.32422e-07;10 mA
430.66;0.303558;286.2;1432;-4.85229e-06;10 mA
431.26;0.303131;286.8;1435;-4.48608e-06;10 mA
431.86;0.302704;287.4;1438;-3.20435e-06;10 mA
432.46;0.302277;288;1441;-3.20435e-06;10 mA
433.06;0.301849;288.6;1444;-1.89209e-06;10 mA
433.66;0.301392;289.2;1447;-3.08228e-06;10 mA
434.26;0.300964;289.8;1450;-2.53296e-06;10 mA
434.86;0.300537;290.4;1453;-2.92969e-06;10 mA
435.46;0.30014;291;1456;-3.17383e-06;10 mA
436.06;0.299713;291.6;1459;-2.53296e-06;10 mA
436.66;0.299286;292.2;1462;-2.13623e-06;10 mA
437.26;0.298889;292.8;1465;-1.46484e-06;10 mA
437.86;0.298523;293.4;1468;-4.91333e-06;10 mA
438.46;0.298126;294;1471;-1.34277e-06;10 mA
439.06;0.297729;294.6;1474;-5.5542e-06;10 mA
439.66;0.297333;295.2;1477;-1.95313e-06;10 mA
440.26;0.296936;295.8;1480;-3.50952e-06;10 mA
440.86;0.296539;296.4;1483;-1.43433e-06;10 mA
441.46;0.296143;297;1486;-4.15039e-06;10 mA
442.06;0.295746;297.6;1489;-2.65503e-06;10 mA
442.66;0.29538;298.2;1492;-4.66919e-06;10 mA
443.26;0.294952;298.8;1495;-4.85229e-06;10 mA
443.86;0.294556;299.4;1498;-1.67847e-06;10 mA
444.46;0.294189;300;1501;-3.2959e-06;10 mA
445.06;0.293793;300.6;1504;-3.78418e-06;10 mA
445.66;0.293396;301.2;1507;-9.76562e-07;10 mA
446.26;0.292999;301.8;1510;-1.06812e-06;10 mA
446.86;0.292633;302.4;1513;-2.65503e-06;10 mA
447.46;0.292267;303;1516;-2.71606e-06;10 mA
448.06;0.29187;303.6;1519;-4.69971e-06;10 mA
448.66;0.291473;304.2;1522;-1.28174e-06;10 mA
449.26;0.291107;304.8;1525;-3.08228e-06;10 mA
449.86;0.290771;305.4;1528;-4.42505e-06;10 mA
450.46;0.290375;306;1531;-4.66919e-06;10 mA
451.06;0.289978;306.6;1534;-3.23486e-06;10 mA
451.66;0.289581;307.2;1537;-3.9978e-06;10 mA
452.26;0.289276;307.8;1540;-2.74658e-06;10 mA
452.86;0.288879;308.4;1543;-1.77002e-06;10 mA
453.46;0.288574;309;1546;-2.10571e-06;10 mA
454.06;0.288208;309.6;1549;-3.66211e-06;10 mA
454.66;0.287872;310.2;1552;-3.23486e-06;10 mA
455.26;0.287476;310.8;1555;-5.15747e-06;10 mA
455.86;0.287109;311.4;1558;-2.38037e-06;10 mA
456.46;0.286804;312;1561;-2.10571e-06;10 mA
457.06;0.286469;312.6;1564;-5.24902e-06;10 mA
457.66;0.286133;313.2;1567;-5.64575e-06;10 mA
458.26;0.285767;313.8;1570;-3.78418e-06;10 mA
458.86;0.2854;314.4;1573;-1.25122e-06;10 mA
459.46;0.285004;315;1576;-6.71387e-07;10 mA
460.06;0.284607;315.6;1579;-1.49536e-06;10 mA
460.66;0.28421;316.2;1582;-1.58691e-06;10 mA
461.26;0.283875;316.8;1585;-3.75366e-06;10 mA
461.86;0.283478;317.4;1588;-4.48608e-06;10 mA
462.46;0.283112;318;1591;-2.68555e-06;10 mA
463.06;0.282715;318.6;1594;-2.22778e-06;10 mA
463.66;0.282318;319.2;1597;-1.46484e-06;10 mA
464.26;0.281982;319.8;1600;-3.44849e-06;10 mA
464.86;0.281555;320.4;1603;-3.41797e-06;10 mA
465.46;0.281189;321;1606;-3.17383e-06;10 mA
466.06;0.280792;321.6;1609;-8.54492e-07;10 mA
466.66;0.280426;322.2;1612;-5.58472e-06;10 mA
467.26;0.28006;322.8;1615;-3.05176e-06;10 mA
467.86;0.279663;323.4;1618;-2.89917e-06;10 mA
468.46;0.279297;324;1621;-2.34985e-06;10 mA
469.06;0.2789;324.6;1624;-3.50952e-06;10 mA
469.66;0.278503;325.2;1627;-3.41797e-06;10 mA
470.26;0.278168;325.8;1630;-3.66211e-06;10 mA
470.86;0.277802;326.4;1633;-6.10352e-06;10 mA
471.46;0.277496;327;1636;-1.52588e-06;10 mA
472.06;0.2771;327.6;1639;-2.10571e-06;10 mA
472.66;0.276764;328.2;1642;-5.61523e-06;10 mA
473.26;0.276337;328.8;1645;-5.82886e-06;10 mA
473.86;0.27597;329.4;1648;-5.7373e-06;10 mA
474.46;0.275604;330;1651;-2.04468e-06;10 mA
475.06;0.275208;330.6;1654;-2.44141e-06;10 mA
475.66;0.274811;331.2;1657;-2.10571e-06;10 mA
476.26;0.274445;331.8;1660;-4.54712e-06;10 mA
476.86;0.274109;332.4;1663;-4.18091e-06;10 mA
477.46;0.273834;333;1666;-3.08228e-06;10 mA
478.06;0.273499;333.6;1669;-3.54004e-06;10 mA
478.66;0.273163;334.2;1672;-1.95313e-06;10 mA
479.26;0.272797;334.8;1675;-1.95313e-06;10 mA
479.86;0.2724;335.4;1678;-5.43213e-06;10 mA
480.46;0.272003;336;1681;-1.0376e-06;10 mA
481.06;0.271606;336.6;1684;-1.46484e-06;10 mA
481.66;0.27124;337.2;1687;-1.5564e-06;10 mA
482.26;0.270844;337.8;1690;-3.8147e-06;10 mA
482.86;0.270477;338.4;1693;-2.38037e-06;10 mA
483.46;0.270081;339;1696;-2.10571e-06;10 mA
484.06;0.269653;339.6;1699;-5.5542e-06;10 mA
484.66;0.269318;340.2;1702;-2.34985e-06;10 mA
485.26;0.268951;340.8;1705;-1.95313e-06;10 mA
485.86;0.268585;341.4;1708;-5.40161e-06;10 mA
486.46;0.26825;342;1711;-5.21851e-06;10 mA
487.06;0.267914;342.6;1714;-5.21851e-06;10 mA
487.66;0.267578;343.2;1717;-4.24194e-06;10 mA
488.26;0.267212;343.8;1720;-5.0354e-06;10 mA
488.86;0.266846;344.4;1723;-2.71606e-06;10 mA
489.46;0.26651;345;1726;-4.69971e-06;10 mA
490.06;0.266174;345.6;1729;-3.84521e-06;10 mA
490.66;0.265808;346.2;1732;-3.50952e-06;10 mA
491.26;0.265472;346.8;1735;-2.31934e-06;10 mA
491.86;0.265106;347.4;1738;-5.27954e-06;10 mA
492.46;0.264771;348;1741;-4.54712e-06;10 mA
493.06;0.264435;348.6;1744;-3.60107e-06;10 mA
493.66;0.264099;349.2;1747;-5.5542e-06;10 mA
494.26;0.263794;349.8;1750;-3.8147e-06;10 mA
494.86;0.263458;350.4;1753;-5.24902e-06;10 mA
495.46;0.263153;351;1756;-1.15967e-06;10 mA
496.06;0.262817;351.6;1759;-2.34985e-06;10 mA
496.66;0.262482;352.2;1762;-2.47192e-06;10 mA
497.26;0.262177;352.8;1765;-1.98364e-06;10 mA
497.86;0.261841;353.4;1768;-5.37109e-06;10 mA
498.46;0.261505;354;1771;-5.85937e-06;10 mA
499.06;0.2612;354.6;1774;-4.97437e-06;10 mA
499.66;0.260834;355.2;1777;-8.8501e-07;10 mA
500.26;0.260498;355.8;1780;-6.5918e-06;10 mA
500.86;0.260162;356.4;1783;-1.2207e-06;10 mA
501.46;0.259827;357;1786;-7.20215e-06;10 mA
502.06;0.25946;357.6;1789;-2.01416e-06;10 mA
502.66;0.259125;358.2;1792;-4.63867e-06;10 mA
503.26;0.258759;358.8;1795;-3.26538e-06;10 mA
503.86;0.258453;359.4;1798;-1.7395e-06;10 mA
504.46;0.258087;360;1801;-9.15527e-07;10 mA
505.06;0.257721;360.6;1804;-1.46484e-06;10 mA
505.66;0.257355;361.2;1807;-1.58691e-06;10 mA
506.26;0.257019;361.8;1810;-4.82178e-06;10 mA
506.86;0.256653;362.4;1813;-2.44141e-06;10 mA
507.46;0.256348;363;1816;-4.27246e-06;10 mA
508.06;0.256042;363.6;1819;-2.22778e-06;10 mA
508.66;0.255737;364.2;1822;-1.80054e-06;10 mA
509.26;0.255432;364.8;1825;-2.50244e-06;10 mA
509.86;0.255066;365.4;1828;-4.02832e-06;10 mA
510.46;0.25473;366;1831;-4.05884e-06;10 mA
511.06;0.254364;366.6;1834;-2.0752e-06;10 mA
511.66;0.253998;367.2;1837;-3.26538e-06;10 mA
512.26;0.253693;367.8;1840;-4.94385e-06;10 mA
512.86;0.253326;368.4;1843;-3.96729e-06;10 mA
513.46;0.252991;369;1846;-3.60107e-06;10 mA
514.06;0.252686;369.6;1849;-3.17383e-06;10 mA
514.66;0.25235;370.2;1852;-2.31934e-06;10 mA
515.26;0.252014;370.8;1855;-4.30298e-06;10 mA
515.86;0.251678;371.4;1858;-4.60815e-06;10 mA
516.46;0.251312;372;1861;-8.54492e-07;10 mA
517.06;0.250977;372.6;1864;-5.98145e-06;10 mA
517.66;0.250641;373.2;1867;-5.76782e-06;10 mA
518.26;0.250305;373.8;1870;-4.54712e-06;10 mA
518.86;0.249969;374.4;1873;-1.46484e-06;10 mA
519.46;0.249664;375;1876;-1.77002e-06;10 mA
520.06;0.249329;375.6;1879;-3.26538e-06;10 mA
520.66;0.249023;376.2;1882;-3.69263e-06;10 mA
521.26;0.24881;376.8;1885;-4.15039e-06;10 mA
521.86;0.248596;377.4;1888;-1.83105e-06;10 mA
522.46;0.248322;378;1891;-4.18091e-06;10 mA
523.06;0.248016;378.6;1894;-2.44141e-06;10 mA
523.66;0.247681;379.2;1897;-2.99072e-06;10 mA
524.26;0.247345;379.8;1900;-5.00488e-06;10 mA
524.86;0.247009;380.4;1903;-3.479e-06;10 mA
525.46;0.246704;381;1906;-4.39453e-06;10 mA
526.06;0.246368;381.6;1909;-3.35693e-06;10 mA
526.66;0.246033;382.2;1912;-3.8147e-06;10 mA
527.26;0.245697;382.8;1915;-2.19727e-06;10 mA
527.86;0.245392;383.4;1918;-1.28174e-06;10 mA
528.46;0.245056;384;1921;-4.21143e-06;10 mA
529.06;0.244781;384.6;1924;-4.08936e-06;10 mA
529.66;0.244415;385.2;1927;-5.18799e-06;10 mA
530.26;0.24411;385.8;1930;-1.89209e-06;10 mA
530.86;0.243744;386.4;1933;-4.85229e-06;10 mA
531.46;0.243408;387;1936;-2.01416e-06;10 mA
532.06;0.243073;387.6;1939;-2.83813e-06;10 mA
532.66;0.242767;388.2;1942;-4.15039e-06;10 mA
533.26;0.242432;388.8;1945;-2.92969e-06;10 mA
533.86;0.242065;389.4;1948;-4.42505e-06;10 mA
534.46;0.241699;390;1951;-4.02832e-06;10 mA
535.06;0.241364;390.6;1954;-4.69971e-06;10 mA
535.66;0.241058;391.2;1957;-3.11279e-06;10 mA
536.26;0.240662;391.8;1960;-2.92969e-06;10 mA
536.86;0.240295;392.4;1963;-3.60107e-06;10 mA
537.46;0.23999;393;1966;-5.09644e-06;10 mA
538.06;0.239685;393.6;1969;-3.08228e-06;10 mA
538.66;0.23938;394.2;1972;-3.50952e-06;10 mA
539.26;0.239105;394.8;1975;-4.57764e-06;10 mA
539.86;0.2388;395.4;1978;-4.66919e-06;10 mA
540.46;0.238495;396;1981;-2.04468e-06;10 mA
541.06;0.23822;396.6;1984;-4.05884e-06;10 mA
541.66;0.237885;397.2;1987;-3.66211e-06;10 mA
542.26;0.237579;397.8;1990;-3.50952e-06;10 mA
542.86;0.237305;398.4;1993;-2.13623e-06;10 mA
543.46;0.236969;399;1996;-1.46484e-06;10 mA
544.06;0.236694;399.6;1999;-2.47192e-06;10 mA
544.66;0.236389;400.2;2002;-2.62451e-06;10 mA
545.26;0.236023;400.8;2005;-2.22778e-06;10 mA
545.86;0.235657;401.4;2008;-4.18091e-06;10 mA
546.46;0.235352;402;2011;-2.7771e-06;10 mA
547.06;0.235077;402.6;2014;-3.05176e-06;10 mA
547.66;0.234772;403.2;2017;-4.5166e-06;10 mA
548.26;0.234436;403.8;2020;-2.68555e-06;10 mA
548.86;0.2341;404.4;2023;-5.46265e-06;10 mA
549.46;0.233795;405;2026;-3.8147e-06;10 mA
550.06;0.23349;405.6;2029;-3.69263e-06;10 mA
550.66;0.233185;406.2;2032;-3.72314e-06;10 mA
551.26;0.23291;406.8;2035;-3.479e-06;10 mA
551.86;0.232635;407.4;2038;-2.13623e-06;10 mA
552.46;0.23233;408;2041;-2.59399e-06;10 mA
553.06;0.232086;408.6;2044;-6.37817e-06;10 mA
553.66;0.231812;409.2;2047;-3.02124e-06;10 mA
554.26;0.231476;409.8;2050;-5.31006e-06;10 mA
554.86;0.231171;410.4;2053;-1.70898e-06;10 mA
555.46;0.230865;411;2056;-2.56348e-06;10 mA
556.06;0.230591;411.6;2059;-4.88281e-06;10 mA
556.66;0.230286;412.2;2062;-1.61743e-06;10 mA
557.26;0.22998;412.8;2065;-3.35693e-06;10 mA
557.86;0.229706;413.4;2068;-1.95313e-06;10 mA
558.46;0.229462;414;2071;-1.80054e-06;10 mA
559.06;0.229187;414.6;2074;-1.98364e-06;10 mA
559.66;0.228912;415.2;2077;-4.02832e-06;10 mA
560.26;0.228607;415.8;2080;-4.94385e-06;10 mA
560.86;0.228363;416.4;2083;-4.02832e-06;10 mA
561.46;0.228058;417;2086;-3.87573e-06;10 mA
562.06;0.227753;417.6;2089;-3.60107e-06;10 mA
562.66;0.227448;418.2;2092;-4.82178e-06;10 mA
563.26;0.227173;418.8;2095;-3.11279e-06;10 mA
563.86;0.226868;419.4;2098;-2.80762e-06;10 mA
564.46;0.226593;420;2101;-1.67847e-06;10 mA
565.06;0.226318;420.6;2104;-1.89209e-06;10 mA
565.66;0.226013;421.2;2107;-2.56348e-06;10 mA
566.26;0.225769;421.8;2110;-5.49316e-06;10 mA
566.86;0.225464;422.4;2113;-4.42505e-06;10 mA
567.46;0.225159;423;2116;-2.44141e-06;10 mA
568.06;0.224823;423.6;2119;-4.05884e-06;10 mA
568.66;0.224518;424.2;2122;-3.90625e-06;10 mA
569.26;0.224213;424.8;2125;-5.5542e-06;10 mA
569.86;0.223877;425.4;2128;-1.2207e-06;10 mA
570.46;0.223602;426;2131;-1.80054e-06;10 mA
571.06;0.223328;426.6;2134;-1.92261e-06;10 mA
571.66;0.223053;427.2;2137;-3.9978e-06;10 mA
572.26;0.222809;427.8;2140;-5.52368e-06;10 mA
572.86;0.222565;428.4;2143;-3.93677e-06;10 mA
573.46;0.222321;429;2146;-6.13403e-06;10 mA
574.06;0.222046;429.6;2149;-2.7771e-06;10 mA
574.66;0.221802;430.2;2152;-5.27954e-06;10 mA
575.26;0.221527;430.8;2155;-1.40381e-06;10 mA
575.86;0.221252;431.4;2158;-1.58691e-06;10 mA
576.46;0.220947;432;2161;-5.31006e-06;10 mA
577.06;0.220642;432.6;2164;-3.50952e-06;10 mA
577.66;0.220306;433.2;2167;-2.50244e-06;10 mA
578.26;0.219971;433.8;2170;-3.32642e-06;10 mA
578.86;0.219635;434.4;2173;-4.30298e-06;10 mA
579.46;0.21933;435;2176;-3.54004e-06;10 mA
580.06;0.219055;435.6;2179;-5.37109e-06;10 mA
580.66;0.218811;436.2;2182;-3.87573e-06;10 mA
581.26;0.218536;436.8;2185;-5.06592e-06;10 mA
581.86;0.218262;437.4;2188;-1.89209e-06;10 mA
582.46;0.217987;438;2191;-4.18091e-06;10 mA
583.06;0.217773;438.6;2194;-1.95313e-06;10 mA
583.66;0.21756;439.2;2197;-2.92969e-06;10 mA
584.26;0.217346;439.8;2200;-3.87573e-06;10 mA
584.86;0.217133;440.4;2203;-4.24194e-06;10 mA
585.46;0.216919;441;2206;-5.34058e-06;10 mA
586.06;0.216705;441.6;2209;-4.66919e-06;10 mA
586.66;0.216431;442.2;2212;-5.31006e-06;10 mA
587.26;0.216156;442.8;2215;-4.42505e-06;10 mA
587.86;0.215942;443.4;2218;-3.35693e-06;10 mA
588.46;0.215698;444;2221;-3.2959e-06;10 mA
589.06;0.215485;444.6;2224;-3.93677e-06;10 mA
589.66;0.21521;445.2;2227;-3.32642e-06;10 mA
590.26;0.214935;445.8;2230;-1.77002e-06;10 mA
590.86;0.214661;446.4;2233;-5.37109e-06;10 mA
591.46;0.214478;447;2236;-5.82886e-06;10 mA
592.06;0.214203;447.6;2239;-1.70898e-06;10 mA
592.66;0.213928;448.2;2242;-2.89917e-06;10 mA
593.26;0.213654;448.8;2245;-1.95313e-06;10 mA
593.86;0.213409;449.4;2248;-3.8147e-06;10 mA
594.46;0.213135;450;2251;-7.62939e-07;10 mA
595.06;0.212891;450.6;2254;-3.05176e-06;10 mA
595.66;0.212677;451.2;2257;-5.61523e-06;10 mA
596.26;0.212524;451.8;2260;-3.57056e-06;10 mA
596.86;0.212311;452.4;2263;-6.2561e-06;10 mA
597.46;0.212097;453;2266;-3.69263e-06;10 mA
598.06;0.211884;453.6;2269;-5.06592e-06;10 mA
598.66;0.2117;454.2;2272;-3.69263e-06;10 mA
599.26;0.211487;454.8;2275;-4.02832e-06;10 mA
599.86;0.211273;455.4;2278;-3.50952e-06;10 mA
600.46;0.211029;456;2281;-3.23486e-06;10 mA
601.06;0.210815;456.6;2284;-3.479e-06;10 mA
601.66;0.210541;457.2;2287;-5.0354e-06;10 mA
602.26;0.210266;457.8;2290;-3.38745e-06;10 mA
602.86;0.210052;458.4;2293;-4.91333e-06;10 mA
603.46;0.209808;459;2296;-4.82178e-06;10 mA
604.06;0.209564;459.6;2299;-3.11279e-06;10 mA
604.66;0.20929;460.2;2302;-1.77002e-06;10 mA
605.26;0.209045;460.8;2305;-4.66919e-06;10 mA
605.86;0.208771;461.4;2308;-5.85937e-06;10 mA
606.46;0.208557;462;2311;-1.80054e-06;10 mA
607.06;0.208344;462.6;2314;-1.70898e-06;10 mA
607.66;0.20813;463.2;2317;-1.67847e-06;10 mA
608.26;0.207886;463.8;2320;-5.24902e-06;10 mA
608.86;0.207642;464.4;2323;-4.88281e-06;10 mA
609.46;0.207397;465;2326;-3.84521e-06;10 mA
610.06;0.207184;465.6;2329;-3.50952e-06;10 mA
610.66;0.207001;466.2;2332;-2.62451e-06;10 mA
611.26;0.206818;466.8;2335;-1.64795e-06;10 mA
611.86;0.206543;467.4;2338;-3.63159e-06;10 mA
612.46;0.206299;468;2341;-2.65503e-06;10 mA
613.06;0.206024;468.6;2344;-3.479e-06;10 mA
613.66;0.20578;469.2;2347;-4.45557e-06;10 mA
614.26;0.205505;469.8;2350;-2.96021e-06;10 mA
614.86;0.205231;470.4;2353;-3.17383e-06;10 mA
615.46;0.204895;471;2356;-5.31006e-06;10 mA
616.06;0.204651;471.6;2359;-5.46265e-06;10 mA
616.66;0.204376;472.2;2362;-1.92261e-06;10 mA
617.26;0.204071;472.8;2365;-5.5542e-06;10 mA
617.86;0.203766;473.4;2368;-4.76074e-06;10 mA
618.46;0.203491;474;2371;-4.76074e-06;10 mA
619.06;0.203217;474.6;2374;-3.44849e-06;10 mA
619.66;0.202911;475.2;2377;-3.84521e-06;10 mA
620.26;0.202637;475.8;2380;-3.93677e-06;10 mA
620.86;0.202393;476.4;2383;-3.2959e-06;10 mA
621.46;0.202148;477;2386;-5.09644e-06;10 mA
622.06;0.201874;477.6;2389;-1.80054e-06;10 mA
622.66;0.20163;478.2;2392;-2.34985e-06;10 mA
623.26;0.201385;478.8;2395;-4.15039e-06;10 mA
623.86;0.201172;479.4;2398;-2.19727e-06;10 mA
624.46;0.200928;480;2401;-3.54004e-06;10 mA
625.06;0.200684;480.6;2404;-2.74658e-06;10 mA
625.66;0.200409;481.2;2407;-4.60815e-06;10 mA
626.26;0.200134;481.8;2410;-3.41797e-06;10 mA
626.86;0.19989;482.4;2413;-4.18091e-06;10 mA
627.46;0.199646;483;2416;-3.66211e-06;10 mA
628.06;0.199432;483.6;2419;-5.67627e-06;10 mA
628.66;0.199219;484.2;2422;-3.05176e-06;10 mA
629.26;0.198975;484.8;2425;9.15527e-08;10 mA
629.86;0.198761;485.4;2428;3.05176e-08;10 mA
630.46;0.198578;486;2431;-5.21851e-06;10 mA
631.06;0.198364;486.6;2434;-3.87573e-06;10 mA
631.66;0.19812;487.2;2437;-2.68555e-06;10 mA
632.26;0.197906;487.8;2440;-4.3335e-06;10 mA
632.86;0.197662;488.4;2443;-3.57056e-06;10 mA
633.46;0.197388;489;2446;-4.88281e-06;10 mA
634.06;0.197174;489.6;2449;-2.16675e-06;10 mA
634.66;0.19696;490.2;2452;-3.05176e-06;10 mA
635.26;0.196716;490.8;2455;-5.70679e-06;10 mA
635.86;0.196472;491.4;2458;-5.06592e-06;10 mA
636.46;0.196289;492;2461;-2.28882e-06;10 mA
637.06;0.196045;492.6;2464;-3.60107e-06;10 mA
637.66;0.195831;493.2;2467;-4.5166e-06;10 mA
638.26;0.195587;493.8;2470;-5.37109e-06;10 mA
638.86;0.195374;494.4;2473;-2.7771e-06;10 mA
639.46;0.195129;495;2476;-3.75366e-06;10 mA
640.06;0.194946;495.6;2479;-3.23486e-06;10 mA
640.66;0.194733;496.2;2482;-4.24194e-06;10 mA
641.26;0.194489;496.8;2485;-2.47192e-06;10 mA
641.86;0.194244;497.4;2488;-4.42505e-06;10 mA
642.46;0.194031;498;2491;-3.41797e-06;10 mA
643.06;0.193787;498.6;2494;-3.479e-06;10 mA
643.66;0.193573;499.2;2497;-2.50244e-06;10 mA
644.26;0.19339;499.8;2500;-3.38745e-06;10 mA
644.86;0.193176;500.4;2503;-3.66211e-06;10 mA
645.46;0.192993;501;2506;-3.66211e-06;10 mA
646.06;0.192719;501.6;2509;-3.41797e-06;10 mA
646.66;0.192505;502.2;2512;-4.66919e-06;10 mA
647.26;0.192261;502.8;2515;-3.60107e-06;10 mA
647.86;0.192047;503.4;2518;-2.99072e-06;10 mA
648.46;0.191833;504;2521;-3.2959e-06;10 mA
649.06;0.19162;504.6;2524;-3.32642e-06;10 mA
649.66;0.191345;505.2;2527;-4.57764e-06;10 mA
650.26;0.191101;505.8;2530;-4.27246e-06;10 mA
650.86;0.190887;506.4;2533;-4.30298e-06;10 mA
651.46;0.190704;507;2536;-4.21143e-06;10 mA
652.06;0.190582;507.6;2539;-3.66211e-06;10 mA
652.66;0.190399;508.2;2542;-2.56348e-06;10 mA
653.26;0.190216;508.8;2545;-3.35693e-06;10 mA
653.86;0.190033;509.4;2548;-1.77002e-06;10 mA
654.46;0.18985;510;2551;-3.20435e-06;10 mA
655.06;0.189636;510.6;2554;-3.50952e-06;10 mA
655.66;0.189423;511.2;2557;-4.69971e-06;10 mA
656.26;0.18927;511.8;2560;-1.86157e-06;10 mA
656.86;0.189056;512.4;2563;-4.42505e-06;10 mA
657.46;0.188873;513;2566;-1.95313e-06;10 mA
658.06;0.188721;513.6;2569;-4.21143e-06;10 mA
658.66;0.188507;514.2;2572;-1.70898e-06;10 mA
659.26;0.188324;514.8;2575;-3.35693e-06;10 mA
659.86;0.188202;515.4;2578;-5.00488e-06;10 mA
660.46;0.188049;516;2581;-2.31934e-06;10 mA
661.06;0.187897;516.6;2584;-4.02832e-06;10 mA
661.66;0.187744;517.2;2587;-3.54004e-06;10 mA
662.26;0.187622;517.8;2590;-4.24194e-06;10 mA
662.86;0.187469;518.4;2593;-4.30298e-06;10 mA
663.46;0.187317;519;2596;-4.30298e-06;10 mA
664.06;0.187164;519.6;2599;-2.71606e-06;10 mA
664.66;0.187012;520.2;2602;-4.3335e-06;10 mA
665.26;0.186859;520.8;2605;-1.12915e-06;10 mA
665.86;0.186676;521.4;2608;-1.2207e-06;10 mA
666.46;0.186523;522;2611;-6.5918e-06;10 mA
667.06;0.186401;522.6;2614;-4.30298e-06;10 mA
667.66;0.186218;523.2;2617;-3.60107e-06;10 mA
668.26;0.186066;523.8;2620;-1.80054e-06;10 mA
668.86;0.185883;524.4;2623;-3.11279e-06;10 mA
669.46;0.185669;525;2626;-3.87573e-06;10 mA
670.06;0.185547;525.6;2629;-3.41797e-06;10 mA
670.66;0.185364;526.2;2632;-2.41089e-06;10 mA
671.26;0.185211;526.8;2635;-3.78418e-06;10 mA
671.86;0.185028;527.4;2638;-1.46484e-06;10 mA
672.46;0.184875;528;2641;-3.60107e-06;10 mA
673.06;0.184753;528.6;2644;-2.92969e-06;10 mA
673.66;0.18454;529.2;2647;-4.30298e-06;10 mA
674.26;0.184326;529.8;2650;-2.71606e-06;10 mA
674.86;0.184113;530.4;2653;-1.95313e-06;10 mA
675.46;0.183868;531;2656;-4.39453e-06;10 mA
676.06;0.183685;531.6;2659;-4.15039e-06;10 mA
676.66;0.183533;532.2;2662;-1.31226e-06;10 mA
677.26;0.18335;532.8;2665;-4.69971e-06;10 mA
677.86;0.183197;533.4;2668;-5.88989e-06;10 mA
678.46;0.183044;534;2671;-4.39453e-06;10 mA
679.06;0.182831;534.6;2674;-5.7373e-06;10 mA
679.66;0.182678;535.2;2677;-2.62451e-06;10 mA
680.26;0.182495;535.8;2680;-2.96021e-06;10 mA
680.86;0.182343;536.4;2683;-2.53296e-06;10 mA
681.46;0.18219;537;2686;-5.43213e-06;10 mA
682.06;0.181976;537.6;2689;-4.08936e-06;10 mA
682.66;0.181793;538.2;2692;-5.7373e-06;10 mA
683.26;0.18161;538.8;2695;-2.16675e-06;10 mA
683.86;0.181427;539.4;2698;-8.23975e-07;10 mA
684.46;0.181274;540;2701;-7.93457e-07;10 mA
685.06;0.181061;540.6;2704;-1.70898e-06;10 mA
685.66;0.180939;541.2;2707;-6.04248e-06;10 mA
686.26;0.180817;541.8;2710;-2.62451e-06;10 mA
686.86;0.180664;542.4;2713;-4.11987e-06;10 mA
687.46;0.180542;543;2716;-5.98145e-06;10 mA
688.06;0.180389;543.6;2719;-3.08228e-06;10 mA
688.66;0.180176;544.2;2722;-5.82886e-06;10 mA
689.26;0.180023;544.8;2725;-1.89209e-06;10 mA
689.86;0.17981;545.4;2728;-3.87573e-06;10 mA
690.46;0.179626;546;2731;-5.06592e-06;10 mA
691.06;0.179474;546.6;2734;-4.60815e-06;10 mA
691.66;0.17926;547.2;2737;-2.92969e-06;10 mA
692.26;0.179108;547.8;2740;-6.10352e-07;10 mA
692.86;0.178955;548.4;2743;-5.34058e-06;10 mA
693.46;0.178772;549;2746;-3.66211e-07;10 mA
694.06;0.178589;549.6;2749;-4.85229e-06;10 mA
694.66;0.178436;550.2;2752;-3.479e-06;10 mA
695.26;0.178192;550.8;2755;-2.47192e-06;10 mA
695.86;0.178009;551.4;2758;-4.30298e-06;10 mA
696.46;0.177795;552;2761;-2.38037e-06;10 mA
697.06;0.177612;552.6;2764;-1.15967e-06;10 mA
697.66;0.17746;553.2;2767;-5.95093e-06;10 mA
698.26;0.177246;553.8;2770;-3.17383e-06;10 mA
698.86;0.177063;554.4;2773;-2.2583e-06;10 mA
699.46;0.17691;555;2776;-4.60815e-06;10 mA
700.06;0.176758;555.6;2779;-3.14331e-06;10 mA
700.66;0.176605;556.2;2782;-5.82886e-06;10 mA
701.26;0.176422;556.8;2785;-3.66211e-06;10 mA
701.86;0.1763;557.4;2788;-5.21851e-06;10 mA
702.46;0.176178;558;2791;-5.79834e-06;10 mA
703.06;0.176056;558.6;2794;-4.88281e-06;10 mA
703.66;0.175964;559.2;2797;-3.90625e-06;10 mA
704.26;0.175842;559.8;2800;-4.79126e-06;10 mA
704.86;0.17569;560.4;2803;-5.49316e-06;10 mA
705.46;0.175537;561;2806;-2.56348e-06;10 mA
706.06;0.175385;561.6;2809;-3.41797e-06;10 mA
706.66;0.175232;562.2;2812;-3.26538e-06;10 mA
707.26;0.17511;562.8;2815;-5.37109e-06;10 mA
707.86;0.174957;563.4;2818;-1.49536e-06;10 mA
708.46;0.174866;564;2821;-3.479e-06;10 mA
709.06;0.174805;564.6;2824;-3.479e-06;10 mA
709.66;0.174713;565.2;2827;-2.56348e-06;10 mA
710.26;0.174561;565.8;2830;-5.12695e-06;10 mA
710.86;0.174438;566.4;2833;-5.24902e-06;10 mA
711.46;0.174316;567;2836;-3.11279e-06;10 mA
712.06;0.174103;567.6;2839;-5.15747e-06;10 mA
712.66;0.17395;568.2;2842;-3.50952e-06;10 mA
713.26;0.173828;568.8;2845;-1.77002e-06;10 mA
713.86;0.173706;569.4;2848;-4.42505e-06;10 mA
714.46;0.173584;570;2851;-3.69263e-06;10 mA
715.06;0.173431;570.6;2854;-2.44141e-06;10 mA
715.66;0.173309;571.2;2857;-5.15747e-06;10 mA
716.26;0.173126;571.8;2860;-3.8147e-06;10 mA
716.86;0.172974;572.4;2863;-3.14331e-06;10 mA
717.46;0.172852;573;2866;-2.68555e-06;10 mA
718.06;0.172699;573.6;2869;-2.59399e-06;10 mA
718.66;0.172546;574.2;2872;-2.38037e-06;10 mA
719.26;0.172394;574.8;2875;-3.60107e-06;10 mA
719.86;0.172302;575.4;2878;-2.96021e-06;10 mA
720.46;0.172211;576;2881;-2.31934e-06;10 mA
721.06;0.172089;576.6;2884;-2.31934e-06;10 mA
721.66;0.171967;577.2;2887;-3.72314e-06;10 mA
722.26;0.171875;577.8;2890;-3.2959e-06;10 mA
722.86;0.171722;578.4;2893;-3.41797e-06;10 mA
723.46;0.171631;579;2896;-2.56348e-06;10 mA
724.06;0.171478;579.6;2899;-5.12695e-06;10 mA
724.66;0.171356;580.2;2902;-3.02124e-06;10 mA
725.26;0.171204;580.8;2905;-2.34985e-06;10 mA
725.86;0.171051;581.4;2908;-4.57764e-06;10 mA
726.46;0.170898;582;2911;-2.10571e-06;10 mA
727.06;0.170746;582.6;2914;-2.59399e-06;10 mA
727.66;0.170593;583.2;2917;-1.25122e-06;10 mA
728.26;0.17041;583.8;2920;-5.09644e-06;10 mA
728.86;0.170288;584.4;2923;-3.41797e-06;10 mA
729.46;0.170105;585;2926;-4.30298e-06;10 mA
730.06;0.169983;585.6;2929;-4.36401e-06;10 mA
730.66;0.16983;586.2;2932;-2.99072e-06;10 mA
731.26;0.169678;586.8;2935;-5.52368e-06;10 mA
731.86;0.169495;587.4;2938;-3.11279e-06;10 mA
732.46;0.169342;588;2941;-5.79834e-06;10 mA
733.06;0.169159;588.6;2944;-4.39453e-06;10 mA
733.66;0.169006;589.2;2947;-1.67847e-06;10 mA
734.26;0.168793;589.8;2950;-4.42505e-06;10 mA
734.86;0.16861;590.4;2953;-5.5542e-06;10 mA
735.46;0.168457;591;2956;-4.5166e-06;10 mA
736.06;0.168304;591.6;2959;-3.66211e-06;10 mA
736.66;0.168152;592.2;2962;-1.12915e-06;10 mA
737.26;0.167999;592.8;2965;-3.26538e-06;10 mA
737.86;0.167847;593.4;2968;-3.84521e-06;10 mA
738.46;0.167664;594;2971;-9.15527e-07;10 mA
739.06;0.16748;594.6;2974;-4.91333e-06;10 mA
739.66;0.167297;595.2;2977;-4.5166e-06;10 mA
740.26;0.167145;595.8;2980;-4.60815e-06;10 mA
740.86;0.166901;596.4;2983;-4.79126e-06;10 mA
741.46;0.166718;597;2986;-3.17383e-06;10 mA
742.06;0.166504;597.6;2989;-7.93457e-07;10 mA
742.66;0.16629;598.2;2992;-3.35693e-06;10 mA
743.26;0.166107;598.8;2995;-6.19507e-06;10 mA
743.86;0.165955;599.4;2998;-2.92969e-06;10 mA
744.26;0.165833;599.8;3000;-1.64795e-06;10 mA