File: CDMXene2-1Ag-1CARGA2.txt
Time (s);WE(1).Potential (V);Corrected time (s);Index;WE(1).Current (A);Current range;Cutoffs
745.996;0.184631;0;1;1.44043e-05;10 mA;WE(1).Potential > 0,85 V , WE(1).Potential > 0,85 V , WE(1).Potential > 0,85 V , WE(1).Potential > 0,85 V
746.196;0.187073;0.2;2;1.35498e-05;10 mA;
746.396;0.189514;0.4;3;1.52588e-05;10 mA;
746.596;0.191864;0.6;4;1.474e-05;10 mA;
746.796;0.194122;0.8;5;1.63574e-05;10 mA;
746.996;0.19632;1;6;1.66626e-05;10 mA;
747.196;0.198395;1.2;7;1.59912e-05;10 mA;
747.396;0.200409;1.4;8;1.33667e-05;10 mA;
747.596;0.202423;1.6;9;1.63879e-05;10 mA;
747.796;0.204315;1.8;10;1.43738e-05;10 mA;
747.996;0.206177;2;11;1.55334e-05;10 mA;
748.196;0.208008;2.2;12;1.51367e-05;10 mA;
748.396;0.209808;2.4;13;1.53503e-05;10 mA;
748.596;0.211578;2.6;14;1.34277e-05;10 mA;
748.796;0.213318;2.8;15;1.44043e-05;10 mA;
748.996;0.215027;3;16;1.41296e-05;10 mA;
749.196;0.216675;3.2;17;1.44348e-05;10 mA;
749.396;0.218353;3.4;18;1.35193e-05;10 mA;
749.596;0.219971;3.6;19;1.68152e-05;10 mA;
749.796;0.221588;3.8;20;1.59912e-05;10 mA;
749.996;0.223145;4;21;1.34583e-05;10 mA;
750.196;0.224731;4.2;22;1.36719e-05;10 mA;
750.396;0.226288;4.4;23;1.474e-05;10 mA;
750.596;0.227814;4.6;24;1.63269e-05;10 mA;
750.796;0.22934;4.8;25;1.52893e-05;10 mA;
750.996;0.230835;5;26;1.51367e-05;10 mA;
751.196;0.2323;5.2;27;1.68457e-05;10 mA;
751.396;0.233795;5.4;28;1.55334e-05;10 mA;
751.596;0.235229;5.6;29;1.57776e-05;10 mA;
751.796;0.236633;5.8;30;1.50146e-05;10 mA;
751.996;0.238037;6;31;1.67847e-05;10 mA;
752.196;0.239441;6.2;32;1.3916e-05;10 mA;
752.396;0.240814;6.4;33;1.5686e-05;10 mA;
752.596;0.2421875;6.6;34;1.66321e-05;10 mA;
752.796;0.243561;6.8;35;1.62964e-05;10 mA;
752.996;0.244904;7;36;1.72424e-05;10 mA;
753.196;0.246246;7.2;37;1.46484e-05;10 mA;
753.396;0.247559;7.4;38;1.6449e-05;10 mA;
753.596;0.248871;7.6;39;1.44958e-05;10 mA;
753.796;0.250183;7.8;40;1.37329e-05;10 mA;
753.996;0.251434;8;41;1.3092e-05;10 mA;
754.196;0.252747;8.2;42;1.33667e-05;10 mA;
754.396;0.253998;8.4;43;1.59607e-05;10 mA;
754.596;0.255249;8.6;44;1.43127e-05;10 mA;
754.796;0.2565;8.8;45;1.36108e-05;10 mA;
754.996;0.257721;9;46;1.474e-05;10 mA;
755.196;0.258942;9.2;47;1.43433e-05;10 mA;
755.396;0.260162;9.4;48;1.651e-05;10 mA;
755.596;0.261353;9.6;49;1.55029e-05;10 mA;
755.796;0.262543;9.8;50;1.61133e-05;10 mA;
755.996;0.263733;10;51;1.66321e-05;10 mA;
756.196;0.264923;10.2;52;1.49536e-05;10 mA;
756.396;0.266083;10.4;53;1.34888e-05;10 mA;
756.596;0.267242;10.6;54;1.36719e-05;10 mA;
756.796;0.268402;10.8;55;1.51672e-05;10 mA;
756.996;0.269562;11;56;1.7395e-05;10 mA;
757.196;0.270691;11.2;57;1.474e-05;10 mA;
757.396;0.27182;11.4;58;1.54724e-05;10 mA;
757.596;0.272949;11.6;59;1.66321e-05;10 mA;
757.796;0.274048;11.8;60;1.70593e-05;10 mA;
757.996;0.275146;12;61;1.57471e-05;10 mA;
758.196;0.276276;12.2;62;1.33667e-05;10 mA;
758.396;0.277374;12.4;63;1.34277e-05;10 mA;
758.596;0.278442;12.6;64;1.41296e-05;10 mA;
758.796;0.27951;12.8;65;1.73035e-05;10 mA;
758.996;0.280579;13;66;1.55334e-05;10 mA;
759.196;0.281616;13.2;67;1.60217e-05;10 mA;
759.396;0.282654;13.4;68;1.55945e-05;10 mA;
759.596;0.283691;13.6;69;1.474e-05;10 mA;
759.796;0.28476;13.8;70;1.66321e-05;10 mA;
759.996;0.285767;14;71;1.66626e-05;10 mA;
760.196;0.286804;14.2;72;1.33972e-05;10 mA;
760.396;0.287811;14.4;73;1.37024e-05;10 mA;
760.596;0.288849;14.6;74;1.37024e-05;10 mA;
760.796;0.289825;14.8;75;1.48621e-05;10 mA;
760.996;0.290833;15;76;1.33057e-05;10 mA;
761.196;0.291809;15.2;77;1.44653e-05;10 mA;
761.396;0.292816;15.4;78;1.37329e-05;10 mA;
761.596;0.293793;15.6;79;1.7395e-05;10 mA;
761.796;0.294739;15.8;80;1.58997e-05;10 mA;
761.996;0.295715;16;81;1.30005e-05;10 mA;
762.196;0.296692;16.2;82;1.67847e-05;10 mA;
762.396;0.297638;16.4;83;1.67236e-05;10 mA;
762.596;0.298584;16.6;84;1.6571e-05;10 mA;
762.796;0.299561;16.8;85;1.46179e-05;10 mA;
762.996;0.300507;17;86;1.76086e-05;10 mA;
763.196;0.301422;17.2;87;1.28174e-05;10 mA;
763.396;0.302338;17.4;88;1.43738e-05;10 mA;
763.596;0.303253;17.6;89;1.53809e-05;10 mA;
763.796;0.304169;17.8;90;1.72729e-05;10 mA;
763.996;0.305115;18;91;1.35498e-05;10 mA;
764.196;0.306;18.2;92;1.28479e-05;10 mA;
764.396;0.306885;18.4;93;1.46484e-05;10 mA;
764.596;0.3078;18.6;94;1.37939e-05;10 mA;
764.796;0.308685;18.8;95;1.78833e-05;10 mA;
764.996;0.30957;19;96;1.48926e-05;10 mA;
765.196;0.310455;19.2;97;1.6449e-05;10 mA;
765.396;0.31134;19.4;98;1.76086e-05;10 mA;
765.596;0.312225;19.6;99;1.297e-05;10 mA;
765.796;0.31311;19.8;100;1.80969e-05;10 mA;
765.996;0.313995;20;101;1.58081e-05;10 mA;
766.196;0.31485;20.2;102;1.3031e-05;10 mA;
766.396;0.315735;20.4;103;1.69983e-05;10 mA;
766.596;0.316589;20.6;104;1.38245e-05;10 mA;
766.796;0.317444;20.8;105;1.34583e-05;10 mA;
766.996;0.318298;21;106;1.52893e-05;10 mA;
767.196;0.319153;21.2;107;1.69067e-05;10 mA;
767.396;0.320007;21.4;108;1.73035e-05;10 mA;
767.596;0.320892;21.6;109;1.57776e-05;10 mA;
767.796;0.321716;21.8;110;1.7395e-05;10 mA;
767.996;0.322571;22;111;1.52588e-05;10 mA;
768.196;0.323395;22.2;112;1.70288e-05;10 mA;
768.396;0.324249;22.4;113;1.63269e-05;10 mA;
768.596;0.325073;22.6;114;1.26953e-05;10 mA;
768.796;0.325897;22.8;115;1.43433e-05;10 mA;
768.996;0.326721;23;116;1.60522e-05;10 mA;
769.196;0.327545;23.2;117;1.48621e-05;10 mA;
769.396;0.328369;23.4;118;1.4801e-05;10 mA;
769.596;0.329193;23.6;119;1.27563e-05;10 mA;
769.796;0.330017;23.8;120;1.37939e-05;10 mA;
769.996;0.330841;24;121;1.44348e-05;10 mA;
770.196;0.331665;24.2;122;1.34583e-05;10 mA;
770.396;0.332489;24.4;123;1.50757e-05;10 mA;
770.596;0.333313;24.6;124;1.67542e-05;10 mA;
770.796;0.334137;24.8;125;1.31531e-05;10 mA;
770.996;0.334961;25;126;1.66626e-05;10 mA;
771.196;0.335754;25.2;127;1.36108e-05;10 mA;
771.396;0.336578;25.4;128;1.53503e-05;10 mA;
771.596;0.337372;25.6;129;1.57166e-05;10 mA;
771.796;0.338165;25.8;130;1.49231e-05;10 mA;
771.996;0.338959;26;131;1.69678e-05;10 mA;
772.196;0.339752;26.2;132;1.67847e-05;10 mA;
772.396;0.340515;26.4;133;1.58386e-05;10 mA;
772.596;0.341339;26.6;134;1.58081e-05;10 mA;
772.796;0.342133;26.8;135;1.33667e-05;10 mA;
772.996;0.342926;27;136;1.57471e-05;10 mA;
773.196;0.343689;27.2;137;1.62964e-05;10 mA;
773.396;0.344482;27.4;138;1.68152e-05;10 mA;
773.596;0.345276;27.6;139;1.42212e-05;10 mA;
773.796;0.346039;27.8;140;1.68457e-05;10 mA;
773.996;0.346802;28;141;1.49841e-05;10 mA;
774.196;0.347595;28.2;142;1.68152e-05;10 mA;
774.396;0.348389;28.4;143;1.57471e-05;10 mA;
774.596;0.349152;28.6;144;1.57166e-05;10 mA;
774.796;0.349915;28.8;145;1.54419e-05;10 mA;
774.996;0.350708;29;146;1.69067e-05;10 mA;
775.196;0.351501;29.2;147;1.55029e-05;10 mA;
775.396;0.352234;29.4;148;1.67847e-05;10 mA;
775.596;0.352997;29.6;149;1.50757e-05;10 mA;
775.796;0.35376;29.8;150;1.43433e-05;10 mA;
775.996;0.354523;30;151;1.64185e-05;10 mA;
776.196;0.355286;30.2;152;1.51672e-05;10 mA;
776.396;0.356049;30.4;153;1.54724e-05;10 mA;
776.596;0.356812;30.6;154;1.5625e-05;10 mA;
776.796;0.357574;30.8;155;1.40686e-05;10 mA;
776.996;0.358337;31;156;1.55334e-05;10 mA;
777.196;0.3591;31.2;157;1.55945e-05;10 mA;
777.396;0.359863;31.4;158;1.56555e-05;10 mA;
777.596;0.360626;31.6;159;1.45569e-05;10 mA;
777.796;0.361359;31.8;160;1.42212e-05;10 mA;
777.996;0.362152;32;161;1.67847e-05;10 mA;
778.196;0.362915;32.2;162;1.55029e-05;10 mA;
778.396;0.363678;32.4;163;1.52283e-05;10 mA;
778.596;0.364441;32.6;164;1.49231e-05;10 mA;
778.796;0.365204;32.8;165;1.54114e-05;10 mA;
778.996;0.365967;33;166;1.32446e-05;10 mA;
779.196;0.366699;33.2;167;1.67847e-05;10 mA;
779.396;0.367493;33.4;168;1.55945e-05;10 mA;
779.596;0.368225;33.6;169;1.69678e-05;10 mA;
779.796;0.368988;33.8;170;1.69373e-05;10 mA;
779.996;0.369751;34;171;1.50757e-05;10 mA;
780.196;0.370483;34.2;172;1.37329e-05;10 mA;
780.396;0.371246;34.4;173;1.70898e-05;10 mA;
780.596;0.372009;34.6;174;1.66321e-05;10 mA;
780.796;0.372742;34.8;175;1.42822e-05;10 mA;
780.996;0.373505;35;176;1.66626e-05;10 mA;
781.196;0.374298;35.2;177;1.37939e-05;10 mA;
781.396;0.375061;35.4;178;1.34583e-05;10 mA;
781.596;0.375793;35.6;179;1.58081e-05;10 mA;
781.796;0.376556;35.8;180;1.40381e-05;10 mA;
781.996;0.377319;36;181;1.45874e-05;10 mA;
782.196;0.378082;36.2;182;1.53809e-05;10 mA;
782.396;0.378845;36.4;183;1.41907e-05;10 mA;
782.596;0.379608;36.6;184;1.35803e-05;10 mA;
782.796;0.380402;36.8;185;1.72729e-05;10 mA;
782.996;0.381134;37;186;1.71204e-05;10 mA;
783.196;0.381897;37.2;187;1.42212e-05;10 mA;
783.396;0.38266;37.4;188;1.60522e-05;10 mA;
783.596;0.383423;37.6;189;1.71204e-05;10 mA;
783.796;0.384186;37.8;190;1.34583e-05;10 mA;
783.996;0.384949;38;191;1.36719e-05;10 mA;
784.196;0.385712;38.2;192;1.44043e-05;10 mA;
784.396;0.386475;38.4;193;1.64795e-05;10 mA;
784.596;0.387238;38.6;194;1.63574e-05;10 mA;
784.796;0.388;38.8;195;1.30615e-05;10 mA;
784.996;0.388763;39;196;1.72424e-05;10 mA;
785.196;0.389526;39.2;197;1.69067e-05;10 mA;
785.396;0.390289;39.4;198;1.61743e-05;10 mA;
785.596;0.391052;39.6;199;1.60828e-05;10 mA;
785.796;0.391815;39.8;200;1.57166e-05;10 mA;
785.996;0.392548;40;201;1.34583e-05;10 mA;
786.196;0.393341;40.2;202;1.62659e-05;10 mA;
786.396;0.394073;40.4;203;1.27258e-05;10 mA;
786.596;0.394867;40.6;204;1.64795e-05;10 mA;
786.796;0.395599;40.8;205;1.31226e-05;10 mA;
786.996;0.396393;41;206;1.54724e-05;10 mA;
787.196;0.397156;41.2;207;1.31226e-05;10 mA;
787.396;0.397888;41.4;208;1.36108e-05;10 mA;
787.596;0.398682;41.6;209;1.44958e-05;10 mA;
787.796;0.399445;41.8;210;1.63879e-05;10 mA;
787.996;0.400208;42;211;1.5686e-05;10 mA;
788.196;0.40094;42.2;212;1.68762e-05;10 mA;
788.396;0.401703;42.4;213;1.32141e-05;10 mA;
788.596;0.402496;42.6;214;1.38245e-05;10 mA;
788.796;0.403259;42.8;215;1.46484e-05;10 mA;
788.996;0.404022;43;216;1.48621e-05;10 mA;
789.196;0.404755;43.2;217;1.40991e-05;10 mA;
789.396;0.405518;43.4;218;1.3855e-05;10 mA;
789.596;0.406311;43.6;219;1.33362e-05;10 mA;
789.796;0.407074;43.8;220;1.60217e-05;10 mA;
789.996;0.407867;44;221;1.54114e-05;10 mA;
790.196;0.40863;44.2;222;1.44348e-05;10 mA;
790.396;0.409424;44.4;223;1.40076e-05;10 mA;
790.596;0.410217;44.6;224;1.33057e-05;10 mA;
790.796;0.41098;44.8;225;1.72729e-05;10 mA;
790.996;0.411774;45;226;1.474e-05;10 mA;
791.196;0.412567;45.2;227;1.35498e-05;10 mA;
791.396;0.413361;45.4;228;1.68762e-05;10 mA;
791.596;0.414154;45.6;229;1.52893e-05;10 mA;
791.796;0.414948;45.8;230;1.35498e-05;10 mA;
791.996;0.41571;46;231;1.61743e-05;10 mA;
792.196;0.416473;46.2;232;1.41602e-05;10 mA;
792.396;0.417236;46.4;233;1.48621e-05;10 mA;
792.596;0.41803;46.6;234;1.53198e-05;10 mA;
792.796;0.418823;46.8;235;1.5686e-05;10 mA;
792.996;0.419586;47;236;1.68152e-05;10 mA;
793.196;0.42038;47.2;237;1.36414e-05;10 mA;
793.396;0.421173;47.4;238;1.70288e-05;10 mA;
793.596;0.421936;47.6;239;1.51978e-05;10 mA;
793.796;0.422699;47.8;240;1.49536e-05;10 mA;
793.996;0.423523;48;241;1.56555e-05;10 mA;
794.196;0.424286;48.2;242;1.54419e-05;10 mA;
794.396;0.425079;48.4;243;1.68762e-05;10 mA;
794.596;0.425903;48.6;244;1.70593e-05;10 mA;
794.796;0.426697;48.8;245;1.61438e-05;10 mA;
794.996;0.42749;49;246;1.49536e-05;10 mA;
795.196;0.428284;49.2;247;1.36108e-05;10 mA;
795.396;0.429077;49.4;248;1.56555e-05;10 mA;
795.596;0.429901;49.6;249;1.69678e-05;10 mA;
795.796;0.430695;49.8;250;1.62659e-05;10 mA;
795.996;0.431519;50;251;1.58997e-05;10 mA;
796.196;0.432312;50.2;252;1.55029e-05;10 mA;
796.396;0.433105;50.4;253;1.66626e-05;10 mA;
796.596;0.433929;50.6;254;1.474e-05;10 mA;
796.796;0.434753;50.8;255;1.35193e-05;10 mA;
796.996;0.435547;51;256;1.68762e-05;10 mA;
797.196;0.436401;51.2;257;1.45569e-05;10 mA;
797.396;0.437195;51.4;258;1.68457e-05;10 mA;
797.596;0.438019;51.6;259;1.52893e-05;10 mA;
797.796;0.438812;51.8;260;1.58081e-05;10 mA;
797.996;0.439636;52;261;1.46484e-05;10 mA;
798.196;0.44043;52.2;262;1.55334e-05;10 mA;
798.396;0.441254;52.4;263;1.45874e-05;10 mA;
798.596;0.442047;52.6;264;1.5625e-05;10 mA;
798.796;0.442871;52.8;265;1.49536e-05;10 mA;
798.996;0.443665;53;266;1.63574e-05;10 mA;
799.196;0.444489;53.2;267;1.34888e-05;10 mA;
799.396;0.445282;53.4;268;1.52893e-05;10 mA;
799.596;0.446106;53.6;269;1.68457e-05;10 mA;
799.796;0.44693;53.8;270;1.40076e-05;10 mA;
799.996;0.447723;54;271;1.63879e-05;10 mA;
800.196;0.448547;54.2;272;1.41296e-05;10 mA;
800.396;0.449371;54.4;273;1.68152e-05;10 mA;
800.596;0.450195;54.6;274;1.68762e-05;10 mA;
800.796;0.450989;54.8;275;1.6449e-05;10 mA;
800.996;0.451782;55;276;1.36719e-05;10 mA;
801.196;0.452606;55.2;277;1.44653e-05;10 mA;
801.396;0.45343;55.4;278;1.53198e-05;10 mA;
801.596;0.454254;55.6;279;1.66016e-05;10 mA;
801.796;0.455078;55.8;280;1.53809e-05;10 mA;
801.996;0.455872;56;281;1.42822e-05;10 mA;
802.196;0.456696;56.2;282;1.4801e-05;10 mA;
802.396;0.457489;56.4;283;1.44653e-05;10 mA;
802.596;0.458313;56.6;284;1.69983e-05;10 mA;
802.796;0.459137;56.8;285;1.54419e-05;10 mA;
802.996;0.459961;57;286;1.71204e-05;10 mA;
803.196;0.460785;57.2;287;1.42517e-05;10 mA;
803.396;0.461609;57.4;288;1.64795e-05;10 mA;
803.596;0.462433;57.6;289;1.3855e-05;10 mA;
803.796;0.463257;57.8;290;1.39465e-05;10 mA;
803.996;0.464081;58;291;1.51672e-05;10 mA;
804.196;0.464935;58.2;292;1.27563e-05;10 mA;
804.396;0.46579;58.4;293;1.48926e-05;10 mA;
804.596;0.466644;58.6;294;1.34277e-05;10 mA;
804.796;0.467468;58.8;295;1.52283e-05;10 mA;
804.996;0.468323;59;296;1.50452e-05;10 mA;
805.196;0.469177;59.2;297;1.4801e-05;10 mA;
805.396;0.470032;59.4;298;1.55029e-05;10 mA;
805.596;0.470856;59.6;299;1.37939e-05;10 mA;
805.796;0.47168;59.8;300;1.40076e-05;10 mA;
805.996;0.472534;60;301;1.64185e-05;10 mA;
806.196;0.473358;60.2;302;1.70898e-05;10 mA;
806.396;0.474213;60.4;303;1.34888e-05;10 mA;
806.596;0.475067;60.6;304;1.40991e-05;10 mA;
806.796;0.475922;60.8;305;1.66626e-05;10 mA;
806.996;0.476776;61;306;1.63269e-05;10 mA;
807.196;0.477631;61.2;307;1.35193e-05;10 mA;
807.396;0.478455;61.4;308;1.4801e-05;10 mA;
807.596;0.479279;61.6;309;1.61133e-05;10 mA;
807.796;0.480133;61.8;310;1.64185e-05;10 mA;
807.996;0.480988;62;311;1.49536e-05;10 mA;
808.196;0.481842;62.2;312;1.49841e-05;10 mA;
808.396;0.482697;62.4;313;1.57776e-05;10 mA;
808.596;0.483551;62.6;314;1.48315e-05;10 mA;
808.796;0.484406;62.8;315;1.42822e-05;10 mA;
808.996;0.48526;63;316;1.51978e-05;10 mA;
809.196;0.486084;63.2;317;1.69067e-05;10 mA;
809.396;0.486938;63.4;318;1.42517e-05;10 mA;
809.596;0.487793;63.6;319;1.5625e-05;10 mA;
809.796;0.488647;63.8;320;1.48315e-05;10 mA;
809.996;0.489471;64;321;1.49536e-05;10 mA;
810.196;0.490326;64.2;322;1.48315e-05;10 mA;
810.396;0.49118;64.4;323;1.52588e-05;10 mA;
810.596;0.492004;64.6;324;1.51672e-05;10 mA;
810.796;0.492859;64.8;325;1.62354e-05;10 mA;
810.996;0.493713;65;326;1.61438e-05;10 mA;
811.196;0.494568;65.2;327;1.51367e-05;10 mA;
811.396;0.495453;65.4;328;1.44653e-05;10 mA;
811.596;0.496307;65.6;329;1.66321e-05;10 mA;
811.796;0.497131;65.8;330;1.49231e-05;10 mA;
811.996;0.497925;66;331;1.3855e-05;10 mA;
812.196;0.498779;66.2;332;1.31836e-05;10 mA;
812.396;0.499603;66.4;333;1.68457e-05;10 mA;
812.596;0.500183;66.6;334;1.65405e-05;10 mA;
812.796;0.501099;66.8;335;1.44043e-05;10 mA;
812.996;0.502014;67;336;1.62048e-05;10 mA;
813.196;0.502625;67.2;337;1.66321e-05;10 mA;
813.396;0.50354;67.4;338;1.57471e-05;10 mA;
813.596;0.504456;67.6;339;1.31531e-05;10 mA;
813.796;0.505371;67.8;340;1.61133e-05;10 mA;
813.996;0.505981;68;341;1.4679e-05;10 mA;
814.196;0.506897;68.2;342;1.64185e-05;10 mA;
814.396;0.5078125;68.4;343;1.67847e-05;10 mA;
814.596;0.508728;68.6;344;1.48621e-05;10 mA;
814.796;0.509338;68.8;345;1.62659e-05;10 mA;
814.996;0.510254;69;346;1.71204e-05;10 mA;
815.196;0.511169;69.2;347;1.58386e-05;10 mA;
815.396;0.512085;69.4;348;1.37329e-05;10 mA;
815.596;0.513;69.6;349;1.57776e-05;10 mA;
815.796;0.513611;69.8;350;1.32751e-05;10 mA;
815.996;0.514526;70;351;1.50452e-05;10 mA;
816.196;0.515442;70.2;352;1.53503e-05;10 mA;
816.396;0.516357;70.4;353;1.66931e-05;10 mA;
816.596;0.517273;70.6;354;1.68152e-05;10 mA;
816.796;0.518188;70.8;355;1.68457e-05;10 mA;
816.996;0.518799;71;356;1.68762e-05;10 mA;
817.196;0.519714;71.2;357;1.45874e-05;10 mA;
817.396;0.52063;71.4;358;1.33667e-05;10 mA;
817.596;0.521545;71.6;359;1.61438e-05;10 mA;
817.796;0.522156;71.8;360;1.70593e-05;10 mA;
817.996;0.523071;72;361;1.69373e-05;10 mA;
818.196;0.523987;72.2;362;1.50757e-05;10 mA;
818.396;0.524902;72.4;363;1.47095e-05;10 mA;
818.596;0.525513;72.6;364;1.56555e-05;10 mA;
818.796;0.526428;72.8;365;1.51062e-05;10 mA;
818.996;0.527344;73;366;1.38245e-05;10 mA;
819.196;0.528259;73.2;367;1.55334e-05;10 mA;
819.396;0.52887;73.4;368;1.59302e-05;10 mA;
819.596;0.529785;73.6;369;1.41907e-05;10 mA;
819.796;0.530701;73.8;370;1.54419e-05;10 mA;
819.996;0.531311;74;371;1.44653e-05;10 mA;
820.196;0.532227;74.2;372;1.33667e-05;10 mA;
820.396;0.533142;74.4;373;1.52283e-05;10 mA;
820.596;0.533752;74.6;374;1.35193e-05;10 mA;
820.796;0.534668;74.8;375;1.59607e-05;10 mA;
820.996;0.535583;75;376;1.71509e-05;10 mA;
821.196;0.536194;75.2;377;1.63269e-05;10 mA;
821.396;0.537109;75.4;378;1.69678e-05;10 mA;
821.596;0.538025;75.6;379;1.44958e-05;10 mA;
821.796;0.538635;75.8;380;1.53198e-05;10 mA;
821.996;0.539551;76;381;1.4679e-05;10 mA;
822.196;0.540466;76.2;382;1.63574e-05;10 mA;
822.396;0.541077;76.4;383;1.3916e-05;10 mA;
822.596;0.541992;76.6;384;1.68457e-05;10 mA;
822.796;0.542908;76.8;385;1.55334e-05;10 mA;
822.996;0.543518;77;386;1.62659e-05;10 mA;
823.196;0.544434;77.2;387;1.67542e-05;10 mA;
823.396;0.545349;77.4;388;1.68762e-05;10 mA;
823.596;0.546265;77.6;389;1.68457e-05;10 mA;
823.796;0.546875;77.8;390;1.67236e-05;10 mA;
823.996;0.547791;78;391;1.74866e-05;10 mA;
824.196;0.548706;78.2;392;1.4679e-05;10 mA;
824.396;0.549316;78.4;393;1.51978e-05;10 mA;
824.596;0.550232;78.6;394;1.72424e-05;10 mA;
824.796;0.551147;78.8;395;1.53809e-05;10 mA;
824.996;0.552063;79;396;1.68762e-05;10 mA;
825.196;0.552673;79.2;397;1.72119e-05;10 mA;
825.396;0.553589;79.4;398;1.61438e-05;10 mA;
825.596;0.554504;79.6;399;1.62354e-05;10 mA;
825.796;0.555115;79.8;400;1.82495e-05;10 mA;
825.996;0.55603;80;401;1.73035e-05;10 mA;
826.196;0.556946;80.2;402;1.57471e-05;10 mA;
826.396;0.557556;80.4;403;1.88599e-05;10 mA;
826.596;0.558472;80.6;404;1.28784e-05;10 mA;
826.796;0.559387;80.8;405;1.83716e-05;10 mA;
826.996;0.559998;81;406;1.51978e-05;10 mA;
827.196;0.560913;81.2;407;1.51062e-05;10 mA;
827.396;0.561829;81.4;408;1.32446e-05;10 mA;
827.596;0.562439;81.6;409;1.62964e-05;10 mA;
827.796;0.563354;81.8;410;1.3092e-05;10 mA;
827.996;0.56427;82;411;1.47705e-05;10 mA;
828.196;0.565186;82.2;412;1.59912e-05;10 mA;
828.396;0.565796;82.4;413;1.66626e-05;10 mA;
828.596;0.566711;82.6;414;1.31531e-05;10 mA;
828.796;0.567322;82.8;415;1.61743e-05;10 mA;
828.996;0.568237;83;416;1.43433e-05;10 mA;
829.196;0.569153;83.2;417;1.40381e-05;10 mA;
829.396;0.569763;83.4;418;1.53503e-05;10 mA;
829.596;0.570679;83.6;419;1.42822e-05;10 mA;
829.796;0.571594;83.8;420;1.47705e-05;10 mA;
829.996;0.572205;84;421;1.54724e-05;10 mA;
830.196;0.57312;84.2;422;1.54419e-05;10 mA;
830.396;0.574036;84.4;423;1.55334e-05;10 mA;
830.596;0.574646;84.6;424;1.43433e-05;10 mA;
830.796;0.575562;84.8;425;1.52283e-05;10 mA;
830.996;0.576477;85;426;1.61133e-05;10 mA;
831.196;0.577087;85.2;427;1.651e-05;10 mA;
831.396;0.578003;85.4;428;1.61743e-05;10 mA;
831.596;0.578918;85.6;429;1.57776e-05;10 mA;
831.796;0.579529;85.8;430;1.31226e-05;10 mA;
831.996;0.580444;86;431;1.58997e-05;10 mA;
832.196;0.58136;86.2;432;1.43127e-05;10 mA;
832.396;0.58197;86.4;433;1.33057e-05;10 mA;
832.596;0.582886;86.6;434;1.46179e-05;10 mA;
832.796;0.583496;86.8;435;1.74561e-05;10 mA;
832.996;0.584412;87;436;1.23291e-05;10 mA;
833.196;0.585327;87.2;437;1.50452e-05;10 mA;
833.396;0.5859375;87.4;438;1.48926e-05;10 mA;
833.596;0.586853;87.6;439;1.72424e-05;10 mA;
833.796;0.587769;87.8;440;1.53809e-05;10 mA;
833.996;0.588379;88;441;1.32751e-05;10 mA;
834.196;0.589294;88.2;442;1.76086e-05;10 mA;
834.396;0.589905;88.4;443;1.63574e-05;10 mA;
834.596;0.59082;88.6;444;1.55334e-05;10 mA;
834.796;0.591431;88.8;445;1.30615e-05;10 mA;
834.996;0.592346;89;446;1.6449e-05;10 mA;
835.196;0.592957;89.2;447;1.70593e-05;10 mA;
835.396;0.593872;89.4;448;1.60522e-05;10 mA;
835.596;0.594482;89.6;449;1.37329e-05;10 mA;
835.796;0.595398;89.8;450;1.50146e-05;10 mA;
835.996;0.596313;90;451;1.6571e-05;10 mA;
836.196;0.596924;90.2;452;1.42822e-05;10 mA;
836.396;0.597839;90.4;453;1.67847e-05;10 mA;
836.596;0.59845;90.6;454;1.52283e-05;10 mA;
836.796;0.599365;90.8;455;1.6571e-05;10 mA;
836.996;0.599976;91;456;1.47705e-05;10 mA;
837.196;0.600891;91.2;457;1.75476e-05;10 mA;
837.396;0.601501;91.4;458;1.70288e-05;10 mA;
837.596;0.602417;91.6;459;1.43127e-05;10 mA;
837.796;0.603027;91.8;460;1.35498e-05;10 mA;
837.996;0.603943;92;461;1.55945e-05;10 mA;
838.196;0.604553;92.2;462;1.33667e-05;10 mA;
838.396;0.605469;92.4;463;1.64185e-05;10 mA;
838.596;0.606079;92.6;464;1.35803e-05;10 mA;
838.796;0.606995;92.8;465;1.62659e-05;10 mA;
838.996;0.607605;93;466;1.51367e-05;10 mA;
839.196;0.608521;93.2;467;1.60217e-05;10 mA;
839.396;0.609436;93.4;468;1.69678e-05;10 mA;
839.596;0.610046;93.6;469;1.50757e-05;10 mA;
839.796;0.610962;93.8;470;1.69067e-05;10 mA;
839.996;0.611572;94;471;1.38245e-05;10 mA;
840.196;0.612488;94.2;472;1.46179e-05;10 mA;
840.396;0.613098;94.4;473;1.50757e-05;10 mA;
840.596;0.614014;94.6;474;1.39465e-05;10 mA;
840.796;0.614624;94.8;475;1.55945e-05;10 mA;
840.996;0.61554;95;476;1.70288e-05;10 mA;
841.196;0.61615;95.2;477;1.71509e-05;10 mA;
841.396;0.617065;95.4;478;1.44653e-05;10 mA;
841.596;0.617676;95.6;479;1.69678e-05;10 mA;
841.796;0.618286;95.8;480;1.55334e-05;10 mA;
841.996;0.619202;96;481;1.52283e-05;10 mA;
842.196;0.619812;96.2;482;1.52588e-05;10 mA;
842.396;0.620728;96.4;483;1.69373e-05;10 mA;
842.596;0.621338;96.6;484;1.56555e-05;10 mA;
842.796;0.622253;96.8;485;1.55029e-05;10 mA;
842.996;0.622864;97;486;1.53198e-05;10 mA;
843.196;0.623779;97.2;487;1.63879e-05;10 mA;
843.396;0.62439;97.4;488;1.42822e-05;10 mA;
843.596;0.625305;97.6;489;1.3855e-05;10 mA;
843.796;0.625916;97.8;490;1.72729e-05;10 mA;
843.996;0.626831;98;491;1.63879e-05;10 mA;
844.196;0.627441;98.2;492;1.45874e-05;10 mA;
844.396;0.628357;98.4;493;1.59912e-05;10 mA;
844.596;0.628967;98.6;494;1.43127e-05;10 mA;
844.796;0.629883;98.8;495;1.45874e-05;10 mA;
844.996;0.630493;99;496;1.37024e-05;10 mA;
845.196;0.631104;99.2;497;1.55334e-05;10 mA;
845.396;0.632019;99.4;498;1.57471e-05;10 mA;
845.596;0.632629;99.6;499;1.71204e-05;10 mA;
845.796;0.633545;99.8;500;1.51062e-05;10 mA;
845.996;0.634155;100;501;1.60217e-05;10 mA;
846.196;0.635071;100.2;502;1.54114e-05;10 mA;
846.396;0.635681;100.4;503;1.69678e-05;10 mA;
846.596;0.636292;100.6;504;1.51367e-05;10 mA;
846.796;0.637207;100.8;505;1.69678e-05;10 mA;
846.996;0.637817;101;506;1.61743e-05;10 mA;
847.196;0.638733;101.2;507;1.38855e-05;10 mA;
847.396;0.639343;101.4;508;1.53809e-05;10 mA;
847.596;0.639954;101.6;509;1.69983e-05;10 mA;
847.796;0.640869;101.8;510;1.48926e-05;10 mA;
847.996;0.641479;102;511;1.39465e-05;10 mA;
848.196;0.642395;102.2;512;1.49841e-05;10 mA;
848.396;0.643005;102.4;513;1.53198e-05;10 mA;
848.596;0.643921;102.6;514;1.66931e-05;10 mA;
848.796;0.644531;102.8;515;1.44958e-05;10 mA;
848.996;0.645142;103;516;1.45874e-05;10 mA;
849.196;0.646057;103.2;517;1.48621e-05;10 mA;
849.396;0.646667;103.4;518;1.68762e-05;10 mA;
849.596;0.647583;103.6;519;1.63574e-05;10 mA;
849.796;0.648193;103.8;520;1.72424e-05;10 mA;
849.996;0.648804;104;521;1.44348e-05;10 mA;
850.196;0.649719;104.2;522;1.41602e-05;10 mA;
850.396;0.65033;104.4;523;1.42212e-05;10 mA;
850.596;0.651245;104.6;524;1.69678e-05;10 mA;
850.796;0.651855;104.8;525;1.57776e-05;10 mA;
850.996;0.652466;105;526;1.52893e-05;10 mA;
851.196;0.653381;105.2;527;1.69678e-05;10 mA;
851.396;0.653992;105.4;528;1.64185e-05;10 mA;
851.596;0.654907;105.6;529;1.66016e-05;10 mA;
851.796;0.655518;105.8;530;1.47705e-05;10 mA;
851.996;0.656128;106;531;1.70288e-05;10 mA;
852.196;0.657043;106.2;532;1.48315e-05;10 mA;
852.396;0.657654;106.4;533;1.55334e-05;10 mA;
852.596;0.658264;106.6;534;1.38855e-05;10 mA;
852.796;0.658875;106.8;535;1.53503e-05;10 mA;
852.996;0.65979;107;536;1.62354e-05;10 mA;
853.196;0.6604;107.2;537;1.67542e-05;10 mA;
853.396;0.661011;107.4;538;1.42822e-05;10 mA;
853.596;0.661926;107.6;539;1.41602e-05;10 mA;
853.796;0.662537;107.8;540;1.52588e-05;10 mA;
853.996;0.663147;108;541;1.53809e-05;10 mA;
854.196;0.6640625;108.2;542;1.58691e-05;10 mA;
854.396;0.664673;108.4;543;1.51978e-05;10 mA;
854.596;0.665283;108.6;544;1.67542e-05;10 mA;
854.796;0.665894;108.8;545;1.37634e-05;10 mA;
854.996;0.666809;109;546;1.75171e-05;10 mA;
855.196;0.667419;109.2;547;1.43433e-05;10 mA;
855.396;0.66803;109.4;548;1.35803e-05;10 mA;
855.596;0.66864;109.6;549;1.66016e-05;10 mA;
855.796;0.66925;109.8;550;1.57166e-05;10 mA;
855.996;0.669861;110;551;1.44653e-05;10 mA;
856.196;0.670776;110.2;552;1.4679e-05;10 mA;
856.396;0.671387;110.4;553;1.6449e-05;10 mA;
856.596;0.671997;110.6;554;1.3855e-05;10 mA;
856.796;0.672607;110.8;555;1.38245e-05;10 mA;
856.996;0.673218;111;556;1.35498e-05;10 mA;
857.196;0.674133;111.2;557;1.64185e-05;10 mA;
857.396;0.674744;111.4;558;1.42517e-05;10 mA;
857.596;0.675354;111.6;559;1.58386e-05;10 mA;
857.796;0.675964;111.8;560;1.65405e-05;10 mA;
857.996;0.67688;112;561;1.38855e-05;10 mA;
858.196;0.67749;112.2;562;1.60217e-05;10 mA;
858.396;0.678101;112.4;563;1.47095e-05;10 mA;
858.596;0.678711;112.6;564;1.70593e-05;10 mA;
858.796;0.679321;112.8;565;1.50757e-05;10 mA;
858.996;0.680237;113;566;1.58997e-05;10 mA;
859.196;0.680847;113.2;567;1.5564e-05;10 mA;
859.396;0.681458;113.4;568;1.39771e-05;10 mA;
859.596;0.682068;113.6;569;1.40076e-05;10 mA;
859.796;0.682983;113.8;570;1.3855e-05;10 mA;
859.996;0.683594;114;571;1.58997e-05;10 mA;
860.196;0.684204;114.2;572;1.55945e-05;10 mA;
860.396;0.684814;114.4;573;1.6449e-05;10 mA;
860.596;0.685425;114.6;574;1.57776e-05;10 mA;
860.796;0.686035;114.8;575;1.69373e-05;10 mA;
860.996;0.686646;115;576;1.47095e-05;10 mA;
861.196;0.687561;115.2;577;1.47095e-05;10 mA;
861.396;0.688171;115.4;578;1.40381e-05;10 mA;
861.596;0.688782;115.6;579;1.63879e-05;10 mA;
861.796;0.689392;115.8;580;1.37329e-05;10 mA;
861.996;0.690002;116;581;1.69373e-05;10 mA;
862.196;0.690613;116.2;582;1.54419e-05;10 mA;
862.396;0.691223;116.4;583;1.474e-05;10 mA;
862.596;0.691833;116.6;584;1.69678e-05;10 mA;
862.796;0.692444;116.8;585;1.53503e-05;10 mA;
862.996;0.693054;117;586;1.52893e-05;10 mA;
863.196;0.693665;117.2;587;1.42212e-05;10 mA;
863.396;0.694275;117.4;588;1.6449e-05;10 mA;
863.596;0.694885;117.6;589;1.35498e-05;10 mA;
863.796;0.695496;117.8;590;1.40991e-05;10 mA;
863.996;0.696106;118;591;1.41907e-05;10 mA;
864.196;0.697021;118.2;592;1.40991e-05;10 mA;
864.396;0.697632;118.4;593;1.63879e-05;10 mA;
864.596;0.698242;118.6;594;1.53809e-05;10 mA;
864.796;0.698853;118.8;595;1.37939e-05;10 mA;
864.996;0.699463;119;596;1.44348e-05;10 mA;
865.196;0.700073;119.2;597;1.57471e-05;10 mA;
865.396;0.700684;119.4;598;1.44348e-05;10 mA;
865.596;0.701294;119.6;599;1.57776e-05;10 mA;
865.796;0.701904;119.8;600;1.37939e-05;10 mA;
865.996;0.702515;120;601;1.35193e-05;10 mA;
866.196;0.703125;120.2;602;1.70593e-05;10 mA;
866.396;0.703735;120.4;603;1.72119e-05;10 mA;
866.596;0.704346;120.6;604;1.58691e-05;10 mA;
866.796;0.704956;120.8;605;1.51062e-05;10 mA;
866.996;0.705872;121;606;1.48621e-05;10 mA;
867.196;0.706482;121.2;607;1.62659e-05;10 mA;
867.396;0.707092;121.4;608;1.70288e-05;10 mA;
867.596;0.707703;121.6;609;1.4679e-05;10 mA;
867.796;0.708313;121.8;610;1.71509e-05;10 mA;
867.996;0.708923;122;611;1.51367e-05;10 mA;
868.196;0.709534;122.2;612;1.41907e-05;10 mA;
868.396;0.710144;122.4;613;1.38245e-05;10 mA;
868.596;0.710754;122.6;614;1.48315e-05;10 mA;
868.796;0.711365;122.8;615;1.47705e-05;10 mA;
868.996;0.71228;123;616;1.44348e-05;10 mA;
869.196;0.712585;123.2;617;1.40686e-05;10 mA;
869.396;0.713501;123.4;618;1.41907e-05;10 mA;
869.596;0.714111;123.6;619;1.651e-05;10 mA;
869.796;0.714722;123.8;620;1.40076e-05;10 mA;
869.996;0.715332;124;621;1.38245e-05;10 mA;
870.196;0.715942;124.2;622;1.46484e-05;10 mA;
870.396;0.716553;124.4;623;1.5625e-05;10 mA;
870.596;0.717163;124.6;624;1.73645e-05;10 mA;
870.796;0.717773;124.8;625;1.651e-05;10 mA;
870.996;0.718384;125;626;1.46484e-05;10 mA;
871.196;0.718994;125.2;627;1.48926e-05;10 mA;
871.396;0.719604;125.4;628;1.60522e-05;10 mA;
871.596;0.720215;125.6;629;1.57776e-05;10 mA;
871.796;0.720825;125.8;630;1.7334e-05;10 mA;
871.996;0.721436;126;631;1.61438e-05;10 mA;
872.196;0.722046;126.2;632;1.62659e-05;10 mA;
872.396;0.722656;126.4;633;1.50452e-05;10 mA;
872.596;0.723267;126.6;634;1.63574e-05;10 mA;
872.796;0.723877;126.8;635;1.59302e-05;10 mA;
872.996;0.724487;127;636;1.7334e-05;10 mA;
873.196;0.725098;127.2;637;1.70593e-05;10 mA;
873.396;0.725708;127.4;638;1.55334e-05;10 mA;
873.596;0.726318;127.6;639;1.6449e-05;10 mA;
873.796;0.726929;127.8;640;1.59607e-05;10 mA;
873.996;0.727539;128;641;1.45874e-05;10 mA;
874.196;0.728149;128.2;642;1.55945e-05;10 mA;
874.396;0.72876;128.4;643;1.67847e-05;10 mA;
874.596;0.72937;128.6;644;1.52588e-05;10 mA;
874.796;0.72998;128.8;645;1.49536e-05;10 mA;
874.996;0.730591;129;646;1.43127e-05;10 mA;
875.196;0.731201;129.2;647;1.41602e-05;10 mA;
875.396;0.731812;129.4;648;1.37024e-05;10 mA;
875.596;0.732422;129.6;649;1.79749e-05;10 mA;
875.796;0.733032;129.8;650;1.44348e-05;10 mA;
875.996;0.733643;130;651;1.51978e-05;10 mA;
876.196;0.734253;130.2;652;1.67847e-05;10 mA;
876.396;0.734558;130.4;653;1.70898e-05;10 mA;
876.596;0.735168;130.6;654;1.38855e-05;10 mA;
876.796;0.735779;130.8;655;1.45569e-05;10 mA;
876.996;0.736389;131;656;1.57166e-05;10 mA;
877.196;0.737;131.2;657;1.62354e-05;10 mA;
877.396;0.73761;131.4;658;1.75476e-05;10 mA;
877.596;0.73822;131.6;659;1.5686e-05;10 mA;
877.796;0.738525;131.8;660;1.50757e-05;10 mA;
877.996;0.739136;132;661;1.39465e-05;10 mA;
878.196;0.739746;132.2;662;1.42517e-05;10 mA;
878.396;0.740356;132.4;663;1.77002e-05;10 mA;
878.596;0.740967;132.6;664;1.34277e-05;10 mA;
878.796;0.741272;132.8;665;1.53198e-05;10 mA;
878.996;0.741882;133;666;1.35498e-05;10 mA;
879.196;0.742493;133.2;667;1.57166e-05;10 mA;
879.396;0.743103;133.4;668;1.67236e-05;10 mA;
879.596;0.743713;133.6;669;1.63269e-05;10 mA;
879.796;0.744324;133.8;670;1.54724e-05;10 mA;
879.996;0.744934;134;671;1.50452e-05;10 mA;
880.196;0.745239;134.2;672;1.71814e-05;10 mA;
880.396;0.74585;134.4;673;1.40991e-05;10 mA;
880.596;0.74646;134.6;674;1.50146e-05;10 mA;
880.796;0.74707;134.8;675;1.63574e-05;10 mA;
880.996;0.747681;135;676;1.40076e-05;10 mA;
881.196;0.748291;135.2;677;1.41296e-05;10 mA;
881.396;0.748596;135.4;678;1.5686e-05;10 mA;
881.596;0.749207;135.6;679;1.34277e-05;10 mA;
881.796;0.749817;135.8;680;1.42212e-05;10 mA;
881.996;0.750122;136;681;1.39771e-05;10 mA;
882.196;0.750732;136.2;682;1.54419e-05;10 mA;
882.396;0.751343;136.4;683;1.44043e-05;10 mA;
882.596;0.751953;136.6;684;1.474e-05;10 mA;
882.796;0.752258;136.8;685;1.44043e-05;10 mA;
882.996;0.752869;137;686;1.58691e-05;10 mA;
883.196;0.753479;137.2;687;1.75476e-05;10 mA;
883.396;0.753784;137.4;688;1.57776e-05;10 mA;
883.596;0.754395;137.6;689;1.55334e-05;10 mA;
883.796;0.755005;137.8;690;1.42822e-05;10 mA;
883.996;0.755615;138;691;1.34888e-05;10 mA;
884.196;0.75592;138.2;692;1.57776e-05;10 mA;
884.396;0.756531;138.4;693;1.36719e-05;10 mA;
884.596;0.757141;138.6;694;1.474e-05;10 mA;
884.796;0.757751;138.8;695;1.74561e-05;10 mA;
884.996;0.758057;139;696;1.70593e-05;10 mA;
885.196;0.758667;139.2;697;1.57776e-05;10 mA;
885.396;0.759277;139.4;698;1.5686e-05;10 mA;
885.596;0.759583;139.6;699;1.68152e-05;10 mA;
885.796;0.760193;139.8;700;1.41296e-05;10 mA;
885.996;0.760803;140;701;1.68457e-05;10 mA;
886.196;0.761108;140.2;702;1.54419e-05;10 mA;
886.396;0.761719;140.4;703;1.61133e-05;10 mA;
886.596;0.762329;140.6;704;1.44653e-05;10 mA;
886.796;0.762634;140.8;705;1.54724e-05;10 mA;
886.996;0.763245;141;706;1.67847e-05;10 mA;
887.196;0.763855;141.2;707;1.5564e-05;10 mA;
887.396;0.76416;141.4;708;1.37634e-05;10 mA;
887.596;0.764771;141.6;709;1.69983e-05;10 mA;
887.796;0.765381;141.8;710;1.73035e-05;10 mA;
887.996;0.765686;142;711;1.54724e-05;10 mA;
888.196;0.766296;142.2;712;1.72119e-05;10 mA;
888.396;0.766907;142.4;713;1.4679e-05;10 mA;
888.596;0.767212;142.6;714;1.3855e-05;10 mA;
888.796;0.767822;142.8;715;1.76697e-05;10 mA;
888.996;0.768433;143;716;1.5686e-05;10 mA;
889.196;0.768738;143.2;717;1.79749e-05;10 mA;
889.396;0.769348;143.4;718;1.32446e-05;10 mA;
889.596;0.769653;143.6;719;1.67847e-05;10 mA;
889.796;0.770264;143.8;720;1.36414e-05;10 mA;
889.996;0.770874;144;721;1.78833e-05;10 mA;
890.196;0.771484;144.2;722;1.71814e-05;10 mA;
890.396;0.77179;144.4;723;1.44348e-05;10 mA;
890.596;0.7724;144.6;724;1.71204e-05;10 mA;
890.796;0.77301;144.8;725;1.5625e-05;10 mA;
890.996;0.773315;145;726;1.52588e-05;10 mA;
891.196;0.773926;145.2;727;1.48621e-05;10 mA;
891.396;0.774231;145.4;728;1.54114e-05;10 mA;
891.596;0.774841;145.6;729;1.78833e-05;10 mA;
891.796;0.775146;145.8;730;1.31226e-05;10 mA;
891.996;0.775757;146;731;1.5686e-05;10 mA;
892.196;0.776367;146.2;732;1.45264e-05;10 mA;
892.396;0.776672;146.4;733;1.59912e-05;10 mA;
892.596;0.777283;146.6;734;1.41296e-05;10 mA;
892.796;0.777588;146.8;735;1.57776e-05;10 mA;
892.996;0.778198;147;736;1.33972e-05;10 mA;
893.196;0.778503;147.2;737;1.44348e-05;10 mA;
893.396;0.779114;147.4;738;1.6449e-05;10 mA;
893.596;0.779419;147.6;739;1.42212e-05;10 mA;
893.796;0.780029;147.8;740;1.49536e-05;10 mA;
893.996;0.78064;148;741;1.44348e-05;10 mA;
894.196;0.780945;148.2;742;1.43127e-05;10 mA;
894.396;0.781555;148.4;743;1.40076e-05;10 mA;
894.596;0.78186;148.6;744;1.42517e-05;10 mA;
894.796;0.782166;148.8;745;1.69983e-05;10 mA;
894.996;0.782776;149;746;1.57166e-05;10 mA;
895.196;0.783081;149.2;747;1.57166e-05;10 mA;
895.396;0.783691;149.4;748;1.67542e-05;10 mA;
895.596;0.784302;149.6;749;1.47095e-05;10 mA;
895.796;0.784607;149.8;750;1.54724e-05;10 mA;
895.996;0.784912;150;751;1.59912e-05;10 mA;
896.196;0.785522;150.2;752;1.62354e-05;10 mA;
896.396;0.785828;150.4;753;1.59607e-05;10 mA;
896.596;0.786438;150.6;754;1.68762e-05;10 mA;
896.796;0.786743;150.8;755;1.50452e-05;10 mA;
896.996;0.787354;151;756;1.57471e-05;10 mA;
897.196;0.787659;151.2;757;1.41602e-05;10 mA;
897.396;0.788269;151.4;758;1.62354e-05;10 mA;
897.596;0.788574;151.6;759;1.5564e-05;10 mA;
897.796;0.789185;151.8;760;1.55945e-05;10 mA;
897.996;0.78949;152;761;1.53809e-05;10 mA;
898.196;0.789795;152.2;762;1.60217e-05;10 mA;
898.396;0.790405;152.4;763;1.5686e-05;10 mA;
898.596;0.79071;152.6;764;1.45874e-05;10 mA;
898.796;0.791321;152.8;765;1.56555e-05;10 mA;
898.996;0.791626;153;766;1.62964e-05;10 mA;
899.196;0.791931;153.2;767;1.54114e-05;10 mA;
899.396;0.792542;153.4;768;1.54419e-05;10 mA;
899.596;0.792847;153.6;769;1.38245e-05;10 mA;
899.796;0.793457;153.8;770;1.53503e-05;10 mA;
899.996;0.793762;154;771;1.61438e-05;10 mA;
900.196;0.794067;154.2;772;1.50452e-05;10 mA;
900.396;0.794678;154.4;773;1.62354e-05;10 mA;
900.596;0.794983;154.6;774;1.57166e-05;10 mA;
900.796;0.795593;154.8;775;1.51062e-05;10 mA;
900.996;0.795898;155;776;1.61133e-05;10 mA;
901.196;0.796204;155.2;777;1.6571e-05;10 mA;
901.396;0.796814;155.4;778;1.45874e-05;10 mA;
901.596;0.797119;155.6;779;1.50146e-05;10 mA;
901.796;0.797424;155.8;780;1.55029e-05;10 mA;
901.996;0.798035;156;781;1.56555e-05;10 mA;
902.196;0.79834;156.2;782;1.60828e-05;10 mA;
902.396;0.798645;156.4;783;1.58081e-05;10 mA;
902.596;0.799255;156.6;784;1.61743e-05;10 mA;
902.796;0.799561;156.8;785;1.55029e-05;10 mA;
902.996;0.800171;157;786;1.51367e-05;10 mA;
903.196;0.800476;157.2;787;1.62659e-05;10 mA;
903.396;0.800781;157.4;788;1.42822e-05;10 mA;
903.596;0.801392;157.6;789;1.52588e-05;10 mA;
903.796;0.801697;157.8;790;1.43738e-05;10 mA;
903.996;0.802002;158;791;1.62659e-05;10 mA;
904.196;0.802612;158.2;792;1.474e-05;10 mA;
904.396;0.802917;158.4;793;1.49231e-05;10 mA;
904.596;0.803223;158.6;794;1.47095e-05;10 mA;
904.796;0.803528;158.8;795;1.54724e-05;10 mA;
904.996;0.804138;159;796;1.57776e-05;10 mA;
905.196;0.804443;159.2;797;1.52588e-05;10 mA;
905.396;0.804749;159.4;798;1.54114e-05;10 mA;
905.596;0.805054;159.6;799;1.44043e-05;10 mA;
905.796;0.805359;159.8;800;1.41907e-05;10 mA;
905.996;0.805969;160;801;1.7334e-05;10 mA;
906.196;0.806274;160.2;802;1.71814e-05;10 mA;
906.396;0.80658;160.4;803;1.50452e-05;10 mA;
906.596;0.806885;160.6;804;1.41602e-05;10 mA;
906.796;0.807495;160.8;805;1.52283e-05;10 mA;
906.996;0.8078;161;806;1.60522e-05;10 mA;
907.196;0.808105;161.2;807;1.51672e-05;10 mA;
907.396;0.808411;161.4;808;1.297e-05;10 mA;
907.596;0.808716;161.6;809;1.32446e-05;10 mA;
907.796;0.809326;161.8;810;1.76086e-05;10 mA;
907.996;0.809631;162;811;1.27563e-05;10 mA;
908.196;0.809937;162.2;812;1.5686e-05;10 mA;
908.396;0.810242;162.4;813;1.55029e-05;10 mA;
908.596;0.810852;162.6;814;1.55029e-05;10 mA;
908.796;0.811157;162.8;815;1.7395e-05;10 mA;
908.996;0.811462;163;816;1.58386e-05;10 mA;
909.196;0.811768;163.2;817;1.75171e-05;10 mA;
909.396;0.812073;163.4;818;1.74561e-05;10 mA;
909.596;0.812378;163.6;819;1.67847e-05;10 mA;
909.796;0.812683;163.8;820;1.59302e-05;10 mA;
909.996;0.812988;164;821;1.52893e-05;10 mA;
910.196;0.813599;164.2;822;1.55945e-05;10 mA;
910.396;0.813904;164.4;823;1.79138e-05;10 mA;
910.596;0.814209;164.6;824;1.63574e-05;10 mA;
910.796;0.814514;164.8;825;1.54114e-05;10 mA;
910.996;0.814819;165;826;1.48315e-05;10 mA;
911.196;0.815125;165.2;827;1.49536e-05;10 mA;
911.396;0.815735;165.4;828;1.48926e-05;10 mA;
911.596;0.81604;165.6;829;1.59302e-05;10 mA;
911.796;0.816345;165.8;830;1.75476e-05;10 mA;
911.996;0.81665;166;831;1.45874e-05;10 mA;
912.196;0.816956;166.2;832;1.52588e-05;10 mA;
912.396;0.817261;166.4;833;1.64795e-05;10 mA;
912.596;0.817566;166.6;834;1.75781e-05;10 mA;
912.796;0.817871;166.8;835;1.58997e-05;10 mA;
912.996;0.818176;167;836;1.60522e-05;10 mA;
913.196;0.818481;167.2;837;1.35193e-05;10 mA;
913.396;0.818787;167.4;838;1.53198e-05;10 mA;
913.596;0.819397;167.6;839;1.36108e-05;10 mA;
913.796;0.819702;167.8;840;1.53198e-05;10 mA;
913.996;0.820007;168;841;1.62354e-05;10 mA;
914.196;0.8203125;168.2;842;1.64185e-05;10 mA;
914.396;0.820618;168.4;843;1.45569e-05;10 mA;
914.596;0.820923;168.6;844;1.62659e-05;10 mA;
914.796;0.821228;168.8;845;1.58081e-05;10 mA;
914.996;0.821533;169;846;1.69373e-05;10 mA;
915.196;0.821838;169.2;847;1.36108e-05;10 mA;
915.396;0.822144;169.4;848;1.58691e-05;10 mA;
915.596;0.822449;169.6;849;1.39465e-05;10 mA;
915.796;0.822754;169.8;850;1.72119e-05;10 mA;
915.996;0.823059;170;851;1.6449e-05;10 mA;
916.196;0.823364;170.2;852;1.47705e-05;10 mA;
916.396;0.823669;170.4;853;1.44653e-05;10 mA;
916.596;0.823975;170.6;854;1.55334e-05;10 mA;
916.796;0.82428;170.8;855;1.34583e-05;10 mA;
916.996;0.824585;171;856;1.35498e-05;10 mA;
917.196;0.82489;171.2;857;1.36108e-05;10 mA;
917.396;0.825195;171.4;858;1.34888e-05;10 mA;
917.596;0.8255;171.6;859;1.79443e-05;10 mA;
917.796;0.825806;171.8;860;1.63574e-05;10 mA;
917.996;0.826111;172;861;1.45569e-05;10 mA;
918.196;0.826416;172.2;862;1.33362e-05;10 mA;
918.396;0.826721;172.4;863;1.49231e-05;10 mA;
918.596;0.827026;172.6;864;1.41907e-05;10 mA;
918.796;0.827332;172.8;865;1.66016e-05;10 mA;
918.996;0.827637;173;866;1.56555e-05;10 mA;
919.196;0.827942;173.2;867;1.55945e-05;10 mA;
919.396;0.828247;173.4;868;1.44653e-05;10 mA;
919.596;0.828552;173.6;869;1.44043e-05;10 mA;
919.796;0.828857;173.8;870;1.24207e-05;10 mA;
919.996;0.829163;174;871;1.27258e-05;10 mA;
920.196;0.829468;174.2;872;1.51062e-05;10 mA;
920.396;0.829773;174.4;873;1.47095e-05;10 mA;
920.596;0.830078;174.6;874;1.56555e-05;10 mA;
920.796;0.830383;174.8;875;1.59302e-05;10 mA;
920.996;0.830688;175;876;1.74866e-05;10 mA;
921.196;0.830994;175.2;877;1.61133e-05;10 mA;
921.396;0.831299;175.4;878;1.59302e-05;10 mA;
921.596;0.831604;175.6;879;1.50757e-05;10 mA;
921.796;0.831909;175.8;880;1.55945e-05;10 mA;
921.996;0.832214;176;881;1.42822e-05;10 mA;
922.196;0.832214;176.2;882;1.50452e-05;10 mA;
922.396;0.832825;176.4;883;1.59302e-05;10 mA;
922.596;0.83313;176.6;884;1.53198e-05;10 mA;
922.796;0.833435;176.8;885;1.63879e-05;10 mA;
922.996;0.833435;177;886;1.54724e-05;10 mA;
923.196;0.834045;177.2;887;1.51367e-05;10 mA;
923.396;0.834045;177.4;888;1.58691e-05;10 mA;
923.596;0.834351;177.6;889;1.48315e-05;10 mA;
923.796;0.834656;177.8;890;1.66931e-05;10 mA;
923.996;0.834961;178;891;1.58691e-05;10 mA;
924.196;0.835266;178.2;892;1.50146e-05;10 mA;
924.396;0.835571;178.4;893;1.54114e-05;10 mA;
924.596;0.835876;178.6;894;1.5564e-05;10 mA;
924.796;0.836182;178.8;895;1.31836e-05;10 mA;
924.996;0.836487;179;896;1.58691e-05;10 mA;
925.196;0.836792;179.2;897;1.60217e-05;10 mA;
925.396;0.836792;179.4;898;1.37939e-05;10 mA;
925.596;0.837097;179.6;899;1.56555e-05;10 mA;
925.796;0.837402;179.8;900;1.61438e-05;10 mA;
925.996;0.837708;180;901;1.33362e-05;10 mA;
926.196;0.838013;180.2;902;1.68762e-05;10 mA;
926.396;0.838318;180.4;903;1.474e-05;10 mA;
926.596;0.838318;180.6;904;1.72424e-05;10 mA;
926.796;0.838623;180.8;905;1.32141e-05;10 mA;
926.996;0.838928;181;906;1.36719e-05;10 mA;
927.196;0.839233;181.2;907;1.55945e-05;10 mA;
927.396;0.839539;181.4;908;1.66321e-05;10 mA;
927.596;0.839844;181.6;909;1.51978e-05;10 mA;
927.796;0.839844;181.8;910;1.65405e-05;10 mA;
927.996;0.840149;182;911;1.33362e-05;10 mA;
928.196;0.840454;182.2;912;1.69067e-05;10 mA;
928.396;0.840759;182.4;913;1.59302e-05;10 mA;
928.596;0.841064;182.6;914;1.3916e-05;10 mA;
928.796;0.841064;182.8;915;1.51978e-05;10 mA;
928.996;0.84137;183;916;1.53503e-05;10 mA;
929.196;0.841675;183.2;917;1.70288e-05;10 mA;
929.396;0.841675;183.4;918;1.66016e-05;10 mA;
929.596;0.84198;183.6;919;1.69983e-05;10 mA;
929.796;0.842285;183.8;920;1.51367e-05;10 mA;
929.996;0.84259;184;921;1.57471e-05;10 mA;
930.196;0.842896;184.2;922;1.57166e-05;10 mA;
930.396;0.843201;184.4;923;1.48621e-05;10 mA;
930.596;0.843201;184.6;924;1.61133e-05;10 mA;
930.796;0.843506;184.8;925;1.55945e-05;10 mA;
930.996;0.843811;185;926;1.53503e-05;10 mA;
931.196;0.844116;185.2;927;1.72424e-05;10 mA;
931.396;0.844421;185.4;928;1.67542e-05;10 mA;
931.596;0.844421;185.6;929;1.3855e-05;10 mA;
931.796;0.844727;185.8;930;1.36719e-05;10 mA;
931.996;0.845032;186;931;1.70898e-05;10 mA;
932.196;0.845337;186.2;932;1.64795e-05;10 mA;
932.396;0.845337;186.4;933;1.41602e-05;10 mA;
932.596;0.845642;186.6;934;1.49536e-05;10 mA;
932.796;0.845947;186.8;935;1.31836e-05;10 mA;
932.996;0.846252;187;936;1.60217e-05;10 mA;
933.196;0.846558;187.2;937;1.55029e-05;10 mA;
933.396;0.846558;187.4;938;1.41296e-05;10 mA;
933.596;0.846863;187.6;939;1.3916e-05;10 mA;
933.796;0.847168;187.8;940;1.57166e-05;10 mA;
933.996;0.847168;188;941;1.49536e-05;10 mA;
934.196;0.847473;188.2;942;1.44653e-05;10 mA;
934.396;0.847778;188.4;943;1.8219e-05;10 mA;
934.596;0.847778;188.6;944;1.41602e-05;10 mA;
934.796;0.848083;188.8;945;1.52893e-05;10 mA;
934.996;0.848389;189;946;1.58997e-05;10 mA;
935.196;0.848694;189.2;947;1.48315e-05;10 mA;
935.396;0.848999;189.4;948;1.3031e-05;10 mA;
935.596;0.849304;189.6;949;1.76392e-05;10 mA;
935.796;0.849304;189.8;950;1.78223e-05;10 mA;
935.996;0.849609;190;951;1.32751e-05;10 mA;
936.196;0.849915;190.2;952;1.45264e-05;10 mA;
936.396;0.85022;190.4;953;1.49536e-05;10 mA;WE(1).Potential > 0,85 V
936.596;0.85022;190.6;954;1.60217e-05;10 mA;WE(1).Potential > 0,85 V
936.796;0.850525;190.8;955;1.36414e-05;10 mA;WE(1).Potential > 0,85 V
936.996;0.85083;191;956;1.57776e-05;10 mA;WE(1).Potential > 0,85 V