File: Mxene1-5Ag-CARGA.txt
Time (s);WE(1).Potential (V);Corrected time (s);Index;WE(1).Current (A);Current range;Cutoffs
349.408;-0.0378601;0;1;4.98352e-05;10 mA;WE(1).Potential > 0,85 V , WE(1).Potential > 0,85 V , WE(1).Potential > 0,85 V , WE(1).Potential > 0,85 V
349.608;-0.0295624;0.2;2;5.09033e-05;10 mA;
349.808;-0.0222961;0.4;3;5.11169e-05;10 mA;
350.008;-0.0157471;0.6;4;4.96826e-05;10 mA;
350.208;-0.00968933;0.8;5;4.81873e-05;10 mA;
350.408;-0.00402222;1;6;4.84314e-05;10 mA;
350.608;0.00131226;1.2;7;4.98352e-05;10 mA;
350.808;0.00639648;1.4;8;4.91943e-05;10 mA;
351.008;0.0112488;1.6;9;5.05371e-05;10 mA;
351.208;0.0159149;1.8;10;4.91333e-05;10 mA;
351.408;0.0203949;2;11;4.93164e-05;10 mA;
351.608;0.0247253;2.2;12;4.83704e-05;10 mA;
351.808;0.0289093;2.4;13;4.91943e-05;10 mA;
352.008;0.0329681;2.6;14;4.8584e-05;10 mA;
352.208;0.036908;2.8;15;4.87976e-05;10 mA;
352.408;0.0407349;3;16;4.96521e-05;10 mA;
352.608;0.0444916;3.2;17;5.10254e-05;10 mA;
352.808;0.0481689;3.4;18;4.98962e-05;10 mA;
353.008;0.0518188;3.6;19;5.03235e-05;10 mA;
353.208;0.0553284;3.8;20;4.87976e-05;10 mA;
353.408;0.0587769;4;21;4.78821e-05;10 mA;
353.608;0.0621338;4.2;22;4.82788e-05;10 mA;
353.808;0.0654297;4.4;23;5.09033e-05;10 mA;
354.008;0.0686646;4.6;24;4.85229e-05;10 mA;
354.208;0.0718384;4.8;25;4.96521e-05;10 mA;
354.408;0.0749817;5;26;4.90723e-05;10 mA;
354.608;0.0780334;5.2;27;4.73022e-05;10 mA;
354.808;0.0810242;5.4;28;4.88281e-05;10 mA;
355.008;0.0840149;5.6;29;4.87061e-05;10 mA;
355.208;0.0869141;5.8;30;4.7821e-05;10 mA;
355.408;0.0897522;6;31;5.11475e-05;10 mA;
355.608;0.0925598;6.2;32;4.87366e-05;10 mA;
355.808;0.0953064;6.4;33;4.94995e-05;10 mA;
356.008;0.098053;6.6;34;5.12085e-05;10 mA;
356.208;0.100739;6.8;35;5.08423e-05;10 mA;
356.408;0.103394;7;36;5.00488e-05;10 mA;
356.608;0.105988;7.2;37;4.6875E-05;10 mA;
356.808;0.108551;7.4;38;4.75464e-05;10 mA;
357.008;0.111084;7.6;39;4.78821e-05;10 mA;
357.208;0.113617;7.8;40;4.98962e-05;10 mA;
357.408;0.116089;8;41;4.83704e-05;10 mA;
357.608;0.11853;8.2;42;4.95605e-05;10 mA;
357.808;0.120972;8.4;43;4.89807e-05;10 mA;
358.008;0.123352;8.6;44;4.90723e-05;10 mA;
358.208;0.125702;8.8;45;4.97131e-05;10 mA;
358.408;0.128021;9;46;5.01404e-05;10 mA;
358.608;0.13031;9.2;47;5.07507e-05;10 mA;
358.808;0.132599;9.4;48;4.74548e-05;10 mA;
359.008;0.134827;9.6;49;4.75464e-05;10 mA;
359.208;0.137054;9.8;50;4.90723e-05;10 mA;
359.408;0.139252;10;51;4.93774e-05;10 mA;
359.608;0.141418;10.2;52;4.6875E-05;10 mA;
359.808;0.143585;10.4;53;4.86755e-05;10 mA;
360.008;0.145721;10.6;54;5.00793e-05;10 mA;
360.208;0.147858;10.8;55;4.69971e-05;10 mA;
360.408;0.149933;11;56;5.02014e-05;10 mA;
360.608;0.152008;11.2;57;4.82483e-05;10 mA;
360.808;0.154053;11.4;58;5.13611e-05;10 mA;
361.008;0.156067;11.6;59;5.13916e-05;10 mA;
361.208;0.158081;11.8;60;4.98657e-05;10 mA;
361.408;0.160095;12;61;4.80652e-05;10 mA;
361.608;0.162048;12.2;62;4.97437e-05;10 mA;
361.808;0.164032;12.4;63;4.74548e-05;10 mA;
362.008;0.165985;12.6;64;4.953e-05;10 mA;
362.208;0.167938;12.8;65;5.09338e-05;10 mA;
362.408;0.1698;13;66;4.80957e-05;10 mA;
362.608;0.171692;13.2;67;4.91638e-05;10 mA;
362.808;0.173553;13.4;68;5.00793e-05;10 mA;
363.008;0.175415;13.6;69;5.02014e-05;10 mA;
363.208;0.177277;13.8;70;4.89502e-05;10 mA;
363.408;0.179138;14;71;4.80042e-05;10 mA;
363.608;0.180969;14.2;72;4.98657e-05;10 mA;
363.808;0.18277;14.4;73;5.08728e-05;10 mA;
364.008;0.18457;14.6;74;4.98352e-05;10 mA;
364.208;0.18634;14.8;75;5.07202e-05;10 mA;
364.408;0.18811;15;76;4.93164e-05;10 mA;
364.608;0.18985;15.2;77;5.04761e-05;10 mA;
364.808;0.191589;15.4;78;4.7699e-05;10 mA;
365.008;0.193298;15.6;79;4.76379e-05;10 mA;
365.208;0.195007;15.8;80;4.93469e-05;10 mA;
365.408;0.196716;16;81;4.79431e-05;10 mA;
365.608;0.198364;16.2;82;5.05676e-05;10 mA;
365.808;0.200043;16.4;83;5.29785e-05;10 mA;
366.008;0.201721;16.6;84;5.04761e-05;10 mA;
366.208;0.203339;16.8;85;5.18799e-05;10 mA;
366.408;0.204956;17;86;5.14221e-05;10 mA;
366.608;0.206543;17.2;87;5.14832e-05;10 mA;
366.808;0.208191;17.4;88;4.81262e-05;10 mA;
367.008;0.209778;17.6;89;4.86145e-05;10 mA;
367.208;0.211334;17.8;90;4.953e-05;10 mA;
367.408;0.212921;18;91;4.88586e-05;10 mA;
367.608;0.214508;18.2;92;4.87976e-05;10 mA;
367.808;0.216095;18.4;93;4.90723e-05;10 mA;
368.008;0.217621;18.6;94;5.00183e-05;10 mA;
368.208;0.219177;18.8;95;5.01099e-05;10 mA;
368.408;0.220673;19;96;4.81873e-05;10 mA;
368.608;0.222198;19.2;97;4.90112e-05;10 mA;
368.808;0.223755;19.4;98;5.11169e-05;10 mA;
369.008;0.22525;19.6;99;5.14221e-05;10 mA;
369.208;0.226746;19.8;100;5.16052e-05;10 mA;
369.408;0.228271;20;101;5.14221e-05;10 mA;
369.608;0.229736;20.2;102;5.10864e-05;10 mA;
369.808;0.231232;20.4;103;4.75769e-05;10 mA;
370.008;0.232697;20.6;104;5.1239e-05;10 mA;
370.208;0.234161;20.8;105;4.89502e-05;10 mA;
370.408;0.235596;21;106;5.11169e-05;10 mA;
370.608;0.237;21.2;107;4.9469e-05;10 mA;
370.808;0.238464;21.4;108;4.79126e-05;10 mA;
371.008;0.239899;21.6;109;4.84924e-05;10 mA;
371.208;0.241302;21.8;110;5.078125E-05;10 mA;
371.408;0.242737;22;111;5.04761e-05;10 mA;
371.608;0.244141;22.2;112;5.09949e-05;10 mA;
371.808;0.245544;22.4;113;4.85229e-05;10 mA;
372.008;0.246948;22.6;114;4.87366e-05;10 mA;
372.208;0.248322;22.8;115;5.02319e-05;10 mA;
372.408;0.249695;23;116;4.89197e-05;10 mA;
372.608;0.251068;23.2;117;4.97131e-05;10 mA;
372.808;0.252441;23.4;118;4.80042e-05;10 mA;
373.008;0.253815;23.6;119;4.90723e-05;10 mA;
373.208;0.255157;23.8;120;5.09338e-05;10 mA;
373.408;0.256531;24;121;4.91333e-05;10 mA;
373.608;0.257874;24.2;122;5.07202e-05;10 mA;
373.808;0.259216;24.4;123;5.05676e-05;10 mA;
374.008;0.260529;24.6;124;4.79126e-05;10 mA;
374.208;0.261841;24.8;125;4.7699e-05;10 mA;
374.408;0.263153;25;126;4.9469e-05;10 mA;
374.608;0.264465;25.2;127;5.13e-05;10 mA;
374.808;0.265747;25.4;128;4.79126e-05;10 mA;
375.008;0.267029;25.6;129;4.98047e-05;10 mA;
375.208;0.268372;25.8;130;4.76685e-05;10 mA;
375.408;0.269623;26;131;4.87976e-05;10 mA;
375.608;0.270905;26.2;132;4.83398e-05;10 mA;
375.808;0.272217;26.4;133;4.81262e-05;10 mA;
376.008;0.273499;26.6;134;5.11169e-05;10 mA;
376.208;0.27475;26.8;135;5.03235e-05;10 mA;
376.408;0.276031;27;136;5.10254e-05;10 mA;
376.608;0.277283;27.2;137;5.01404e-05;10 mA;
376.808;0.278564;27.4;138;4.776e-05;10 mA;
377.008;0.279816;27.6;139;4.89197e-05;10 mA;
377.208;0.281067;27.8;140;4.84009e-05;10 mA;
377.408;0.282318;28;141;4.93469e-05;10 mA;
377.608;0.283539;28.2;142;5.13306e-05;10 mA;
377.808;0.28476;28.4;143;4.71497e-05;10 mA;
378.008;0.286011;28.6;144;5.00488e-05;10 mA;
378.208;0.287201;28.8;145;4.82788e-05;10 mA;
378.408;0.288422;29;146;4.96216e-05;10 mA;
378.608;0.289642;29.2;147;4.79126e-05;10 mA;
378.808;0.290833;29.4;148;4.91943e-05;10 mA;
379.008;0.292053;29.6;149;4.89197e-05;10 mA;
379.208;0.293243;29.8;150;5.05371e-05;10 mA;
379.408;0.294464;30;151;5.04761e-05;10 mA;
379.608;0.295654;30.2;152;4.89807e-05;10 mA;
379.808;0.296844;30.4;153;4.96521e-05;10 mA;
380.008;0.297974;30.6;154;4.90112e-05;10 mA;
380.208;0.299133;30.8;155;4.98657e-05;10 mA;
380.408;0.300293;31;156;4.9408e-05;10 mA;
380.608;0.301483;31.2;157;5.02625e-05;10 mA;
380.808;0.302643;31.4;158;4.93164e-05;10 mA;
381.008;0.303772;31.6;159;4.90417e-05;10 mA;
381.208;0.304901;31.8;160;5.02014e-05;10 mA;
381.408;0.306061;32;161;4.9469e-05;10 mA;
381.608;0.30719;32.2;162;4.80652e-05;10 mA;
381.808;0.308319;32.4;163;5.05981e-05;10 mA;
382.008;0.309418;32.6;164;4.93469e-05;10 mA;
382.208;0.310547;32.8;165;5.08118e-05;10 mA;
382.408;0.311676;33;166;5.11169e-05;10 mA;
382.608;0.312805;33.2;167;4.92249e-05;10 mA;
382.808;0.313873;33.4;168;4.91028e-05;10 mA;
383.008;0.315002;33.6;169;4.96826e-05;10 mA;
383.208;0.316101;33.8;170;4.87061e-05;10 mA;
383.408;0.31723;34;171;5.02014e-05;10 mA;
383.608;0.318329;34.2;172;5.02014e-05;10 mA;
383.808;0.319427;34.4;173;4.8645e-05;10 mA;
384.008;0.320526;34.6;174;4.94995e-05;10 mA;
384.208;0.321594;34.8;175;4.91333e-05;10 mA;
384.408;0.322693;35;176;5.02014e-05;10 mA;
384.608;0.323792;35.2;177;4.95911e-05;10 mA;
384.808;0.32486;35.4;178;4.87061e-05;10 mA;
385.008;0.325897;35.6;179;4.776e-05;10 mA;
385.208;0.326965;35.8;180;4.75159e-05;10 mA;
385.408;0.328003;36;181;4.83704e-05;10 mA;
385.608;0.329071;36.2;182;5.22766e-05;10 mA;
385.808;0.330109;36.4;183;4.72107e-05;10 mA;
386.008;0.331146;36.6;184;5.26428e-05;10 mA;
386.208;0.332214;36.8;185;4.86755e-05;10 mA;
386.408;0.333252;37;186;5.0293e-05;10 mA;
386.608;0.33429;37.2;187;5.00793e-05;10 mA;
386.808;0.335358;37.4;188;4.776e-05;10 mA;
387.008;0.336365;37.6;189;4.83398e-05;10 mA;
387.208;0.337402;37.8;190;4.79736e-05;10 mA;
387.408;0.33844;38;191;5.23987e-05;10 mA;
387.608;0.339447;38.2;192;5.0415e-05;10 mA;
387.808;0.340485;38.4;193;4.76685e-05;10 mA;
388.008;0.341492;38.6;194;5.29785e-05;10 mA;
388.208;0.342499;38.8;195;5.0293e-05;10 mA;
388.408;0.343536;39;196;4.86145e-05;10 mA;
388.608;0.344513;39.2;197;5.01099e-05;10 mA;
388.808;0.34552;39.4;198;5.2063e-05;10 mA;
389.008;0.346497;39.6;199;4.82788e-05;10 mA;
389.208;0.347504;39.8;200;4.76379e-05;10 mA;
389.408;0.348511;40;201;4.68445e-05;10 mA;
389.608;0.349487;40.2;202;4.8584e-05;10 mA;
389.808;0.350464;40.4;203;4.86755e-05;10 mA;
390.008;0.35144;40.6;204;4.77295e-05;10 mA;
390.208;0.352448;40.8;205;4.7821e-05;10 mA;
390.408;0.353455;41;206;4.98962e-05;10 mA;
390.608;0.354431;41.2;207;4.90112e-05;10 mA;
390.808;0.355408;41.4;208;5.14526e-05;10 mA;
391.008;0.356384;41.6;209;4.89502e-05;10 mA;
391.208;0.357391;41.8;210;5.08423e-05;10 mA;
391.408;0.358368;42;211;5.15442e-05;10 mA;
391.608;0.359375;42.2;212;4.88892e-05;10 mA;
391.808;0.360321;42.4;213;5.09338e-05;10 mA;
392.008;0.361298;42.6;214;4.90417e-05;10 mA;
392.208;0.362244;42.8;215;5.16663e-05;10 mA;
392.408;0.36322;43;216;4.6814e-05;10 mA;
392.608;0.364227;43.2;217;4.78516e-05;10 mA;
392.808;0.365173;43.4;218;4.90112e-05;10 mA;
393.008;0.36615;43.6;219;5.11169e-05;10 mA;
393.208;0.367157;43.8;220;5.04456e-05;10 mA;
393.408;0.368073;44;221;5.1239e-05;10 mA;
393.608;0.36908;44.2;222;4.94385e-05;10 mA;
393.808;0.370026;44.4;223;4.69666e-05;10 mA;
394.008;0.371002;44.6;224;4.75464e-05;10 mA;
394.208;0.371948;44.8;225;5.08728e-05;10 mA;
394.408;0.372894;45;226;4.93164e-05;10 mA;
394.608;0.37384;45.2;227;4.91638e-05;10 mA;
394.808;0.374817;45.4;228;4.93774e-05;10 mA;
395.008;0.375763;45.6;229;5.07202e-05;10 mA;
395.208;0.376709;45.8;230;5.04761e-05;10 mA;
395.408;0.377655;46;231;4.91638e-05;10 mA;
395.608;0.378571;46.2;232;5.0415e-05;10 mA;
395.808;0.379517;46.4;233;4.74854e-05;10 mA;
396.008;0.380493;46.6;234;4.93164e-05;10 mA;
396.208;0.381439;46.8;235;4.78516e-05;10 mA;
396.408;0.382355;47;236;4.85229e-05;10 mA;
396.608;0.383301;47.2;237;4.9408e-05;10 mA;
396.808;0.384247;47.4;238;5.04456e-05;10 mA;
397.008;0.385162;47.6;239;4.93774e-05;10 mA;
397.208;0.386139;47.8;240;4.8584e-05;10 mA;
397.408;0.387085;48;241;4.93164e-05;10 mA;
397.608;0.388062;48.2;242;5.07202e-05;10 mA;
397.808;0.389008;48.4;243;5.00183e-05;10 mA;
398.008;0.389984;48.6;244;4.953e-05;10 mA;
398.208;0.3909;48.8;245;4.87366e-05;10 mA;
398.408;0.391846;49;246;5.06287e-05;10 mA;
398.608;0.392792;49.2;247;4.81567e-05;10 mA;
398.808;0.393738;49.4;248;4.86145e-05;10 mA;
399.008;0.394684;49.6;249;4.78821e-05;10 mA;
399.208;0.39563;49.8;250;5.08118e-05;10 mA;
399.408;0.396576;50;251;4.99878e-05;10 mA;
399.608;0.397491;50.2;252;4.97437e-05;10 mA;
399.808;0.3984375;50.4;253;5.09949e-05;10 mA;
400.008;0.399414;50.6;254;4.9408e-05;10 mA;
400.208;0.40033;50.8;255;4.76074e-05;10 mA;
400.408;0.401276;51;256;5.1239e-05;10 mA;
400.608;0.402222;51.2;257;4.94995e-05;10 mA;
400.808;0.403198;51.4;258;5.00488e-05;10 mA;
401.008;0.404114;51.6;259;4.84924e-05;10 mA;
401.208;0.40506;51.8;260;5.09644e-05;10 mA;
401.408;0.406006;52;261;4.92554e-05;10 mA;
401.608;0.406952;52.2;262;4.81567e-05;10 mA;
401.808;0.407867;52.4;263;4.98352e-05;10 mA;
402.008;0.408844;52.6;264;4.95605e-05;10 mA;
402.208;0.409821;52.8;265;5.09644e-05;10 mA;
402.408;0.410767;53;266;4.98047e-05;10 mA;
402.608;0.411713;53.2;267;4.89807e-05;10 mA;
402.808;0.412689;53.4;268;4.91028e-05;10 mA;
403.008;0.413635;53.6;269;4.84924e-05;10 mA;
403.208;0.414612;53.8;270;5.03235e-05;10 mA;
403.408;0.415558;54;271;5.08728e-05;10 mA;
403.608;0.416473;54.2;272;4.78821e-05;10 mA;
403.808;0.417419;54.4;273;5.04761e-05;10 mA;
404.008;0.418396;54.6;274;4.98962e-05;10 mA;
404.208;0.419312;54.8;275;5.08728e-05;10 mA;
404.408;0.420258;55;276;5.02625e-05;10 mA;
404.608;0.421234;55.2;277;4.96521e-05;10 mA;
404.808;0.42218;55.4;278;4.97437e-05;10 mA;
405.008;0.423126;55.6;279;5.1178e-05;10 mA;
405.208;0.424072;55.8;280;5.13611e-05;10 mA;
405.408;0.425049;56;281;4.87671e-05;10 mA;
405.608;0.426025;56.2;282;4.93164e-05;10 mA;
405.808;0.426971;56.4;283;4.92249e-05;10 mA;
406.008;0.427917;56.6;284;5.08118e-05;10 mA;
406.208;0.428894;56.8;285;4.88281e-05;10 mA;
406.408;0.429871;57;286;4.78821e-05;10 mA;
406.608;0.430847;57.2;287;4.94385e-05;10 mA;
406.808;0.431793;57.4;288;4.87671e-05;10 mA;
407.008;0.43277;57.6;289;4.90723e-05;10 mA;
407.208;0.433716;57.8;290;5.03235e-05;10 mA;
407.408;0.434662;58;291;5.09644e-05;10 mA;
407.608;0.435638;58.2;292;4.88281e-05;10 mA;
407.808;0.436584;58.4;293;4.81262e-05;10 mA;
408.008;0.437561;58.6;294;5.0293e-05;10 mA;
408.208;0.438507;58.8;295;4.95911e-05;10 mA;
408.408;0.439484;59;296;5.08118e-05;10 mA;
408.608;0.44046;59.2;297;4.96826e-05;10 mA;
408.808;0.441406;59.4;298;5.02319e-05;10 mA;
409.008;0.442383;59.6;299;4.80652e-05;10 mA;
409.208;0.443359;59.8;300;4.87366e-05;10 mA;
409.408;0.444336;60;301;5.07507e-05;10 mA;
409.608;0.445282;60.2;302;5.09949e-05;10 mA;
409.808;0.446259;60.4;303;5.07202e-05;10 mA;
410.008;0.447235;60.6;304;4.90417e-05;10 mA;
410.208;0.448212;60.8;305;5.00183e-05;10 mA;
410.408;0.449158;61;306;4.75769e-05;10 mA;
410.608;0.450134;61.2;307;5.09644e-05;10 mA;
410.808;0.451141;61.4;308;4.98352e-05;10 mA;
411.008;0.452087;61.6;309;4.88892e-05;10 mA;
411.208;0.453064;61.8;310;4.98962e-05;10 mA;
411.408;0.45401;62;311;4.98047e-05;10 mA;
411.608;0.454987;62.2;312;4.98352e-05;10 mA;
411.808;0.455963;62.4;313;5.09949e-05;10 mA;
412.008;0.45697;62.6;314;4.82788e-05;10 mA;
412.208;0.457947;62.8;315;4.84619e-05;10 mA;
412.408;0.458893;63;316;4.92249e-05;10 mA;
412.608;0.4599;63.2;317;4.80957e-05;10 mA;
412.808;0.460876;63.4;318;5.09033e-05;10 mA;
413.008;0.461884;63.6;319;4.94995e-05;10 mA;
413.208;0.46286;63.8;320;4.87671e-05;10 mA;
413.408;0.463867;64;321;5.00488e-05;10 mA;
413.608;0.464844;64.2;322;4.91943e-05;10 mA;
413.808;0.465851;64.4;323;5.08423e-05;10 mA;
414.008;0.466858;64.6;324;4.93164e-05;10 mA;
414.208;0.467834;64.8;325;4.98657e-05;10 mA;
414.408;0.468872;65;326;5.04761e-05;10 mA;
414.608;0.469849;65.2;327;4.88892e-05;10 mA;
414.808;0.470856;65.4;328;5.05676e-05;10 mA;
415.008;0.471802;65.6;329;4.81262e-05;10 mA;
415.208;0.472809;65.8;330;4.95605e-05;10 mA;
415.408;0.473785;66;331;4.86145e-05;10 mA;
415.608;0.474792;66.2;332;4.96216e-05;10 mA;
415.808;0.475769;66.4;333;5.00183e-05;10 mA;
416.008;0.476715;66.6;334;5.01099e-05;10 mA;
416.208;0.477753;66.8;335;5.06592e-05;10 mA;
416.408;0.478729;67;336;5.00183e-05;10 mA;
416.608;0.479767;67.2;337;5.05371e-05;10 mA;
416.808;0.480774;67.4;338;4.81262e-05;10 mA;
417.008;0.48172;67.6;339;4.78516e-05;10 mA;
417.208;0.482727;67.8;340;4.96521e-05;10 mA;
417.408;0.483704;68;341;4.81567e-05;10 mA;
417.608;0.48468;68.2;342;5.12085e-05;10 mA;
417.808;0.485687;68.4;343;4.99573e-05;10 mA;
418.008;0.486633;68.6;344;4.81262e-05;10 mA;
418.208;0.48761;68.8;345;5.12695e-05;10 mA;
418.408;0.488617;69;346;5.08118e-05;10 mA;
418.608;0.489624;69.2;347;5.15442e-05;10 mA;
418.808;0.490631;69.4;348;4.74548e-05;10 mA;
419.008;0.491638;69.6;349;4.73328e-05;10 mA;
419.208;0.492676;69.8;350;5.12695e-05;10 mA;
419.408;0.493683;70;351;5.2063e-05;10 mA;
419.608;0.49469;70.2;352;4.93774e-05;10 mA;
419.808;0.495667;70.4;353;4.73938e-05;10 mA;
420.008;0.496674;70.6;354;5.26123e-05;10 mA;
420.208;0.49765;70.8;355;4.84619e-05;10 mA;
420.408;0.498688;71;356;5.22461e-05;10 mA;
420.608;0.499695;71.2;357;5.19714e-05;10 mA;
420.808;0.500488;71.4;358;4.84924e-05;10 mA;
421.008;0.501404;71.6;359;4.81567e-05;10 mA;
421.208;0.502625;71.8;360;4.88892e-05;10 mA;
421.408;0.50354;72;361;5.01404e-05;10 mA;
421.608;0.504456;72.2;362;4.953e-05;10 mA;
421.808;0.505676;72.4;363;5.14832e-05;10 mA;
422.008;0.506592;72.6;364;5.12695e-05;10 mA;
422.208;0.507507;72.8;365;4.98352e-05;10 mA;
422.408;0.508728;73;366;5.06897e-05;10 mA;
422.608;0.509644;73.2;367;4.78516e-05;10 mA;
422.808;0.510559;73.4;368;4.96216e-05;10 mA;
423.008;0.511475;73.6;369;4.98962e-05;10 mA;
423.208;0.512695;73.8;370;4.99268e-05;10 mA;
423.408;0.513611;74;371;4.953e-05;10 mA;
423.608;0.514526;74.2;372;4.93164e-05;10 mA;
423.808;0.515747;74.4;373;4.89807e-05;10 mA;
424.008;0.516663;74.6;374;4.83398e-05;10 mA;
424.208;0.517578;74.8;375;4.95911e-05;10 mA;
424.408;0.518799;75;376;4.99573e-05;10 mA;
424.608;0.519714;75.2;377;4.90417e-05;10 mA;
424.808;0.52063;75.4;378;5.00183e-05;10 mA;
425.008;0.521545;75.6;379;4.91638e-05;10 mA;
425.208;0.522766;75.8;380;4.98962e-05;10 mA;
425.408;0.523682;76;381;4.96521e-05;10 mA;
425.608;0.524597;76.2;382;4.92554e-05;10 mA;
425.808;0.525513;76.4;383;4.88586e-05;10 mA;
426.008;0.526733;76.6;384;4.87061e-05;10 mA;
426.208;0.527649;76.8;385;5.05676e-05;10 mA;
426.408;0.528564;77;386;4.93774e-05;10 mA;
426.608;0.529785;77.2;387;4.99268e-05;10 mA;
426.808;0.530701;77.4;388;4.99268e-05;10 mA;
427.008;0.531616;77.6;389;5.04761e-05;10 mA;
427.208;0.532532;77.8;390;4.83704e-05;10 mA;
427.408;0.533752;78;391;4.83398e-05;10 mA;
427.608;0.534668;78.2;392;4.80957e-05;10 mA;
427.808;0.535583;78.4;393;5.04761e-05;10 mA;
428.008;0.536499;78.6;394;4.81873e-05;10 mA;
428.208;0.53772;78.8;395;4.84314e-05;10 mA;
428.408;0.538635;79;396;4.80652e-05;10 mA;
428.608;0.539551;79.2;397;4.99268e-05;10 mA;
428.808;0.540466;79.4;398;5.10864e-05;10 mA;
429.008;0.541687;79.6;399;4.80652e-05;10 mA;
429.208;0.542603;79.8;400;4.90112e-05;10 mA;
429.408;0.543518;80;401;5.05676e-05;10 mA;
429.608;0.544739;80.2;402;5.16357e-05;10 mA;
429.808;0.545654;80.4;403;4.84009e-05;10 mA;
430.008;0.54657;80.6;404;4.90112e-05;10 mA;
430.208;0.547791;80.8;405;4.99878e-05;10 mA;
430.408;0.548706;81;406;4.89807e-05;10 mA;
430.608;0.549622;81.2;407;5.14221e-05;10 mA;
430.808;0.550842;81.4;408;5.04761e-05;10 mA;
431.008;0.551758;81.6;409;5.08423e-05;10 mA;
431.208;0.552673;81.8;410;4.97742e-05;10 mA;
431.408;0.553589;82;411;5.10559e-05;10 mA;
431.608;0.55481;82.2;412;4.97742e-05;10 mA;
431.808;0.555725;82.4;413;5.01709e-05;10 mA;
432.008;0.556641;82.6;414;4.93164e-05;10 mA;
432.208;0.557556;82.8;415;5.05371e-05;10 mA;
432.408;0.558472;83;416;5.08118e-05;10 mA;
432.608;0.559692;83.2;417;4.96826e-05;10 mA;
432.808;0.560608;83.4;418;4.86755e-05;10 mA;
433.008;0.561523;83.6;419;5.04456e-05;10 mA;
433.208;0.562439;83.8;420;4.8645e-05;10 mA;
433.408;0.56366;84;421;5.05066e-05;10 mA;
433.608;0.564575;84.2;422;5.01404e-05;10 mA;
433.808;0.565491;84.4;423;4.92554e-05;10 mA;
434.008;0.566711;84.6;424;4.85535e-05;10 mA;
434.208;0.567627;84.8;425;4.96521e-05;10 mA;
434.408;0.568542;85;426;4.97131e-05;10 mA;
434.608;0.569458;85.2;427;4.98962e-05;10 mA;
434.808;0.570374;85.4;428;5.02014e-05;10 mA;
435.008;0.571289;85.6;429;4.83704e-05;10 mA;
435.208;0.57251;85.8;430;4.94995e-05;10 mA;
435.408;0.573425;86;431;4.97742e-05;10 mA;
435.608;0.574341;86.2;432;4.953e-05;10 mA;
435.808;0.575256;86.4;433;4.84009e-05;10 mA;
436.008;0.576477;86.6;434;5.05676e-05;10 mA;
436.208;0.577393;86.8;435;5.09644e-05;10 mA;
436.408;0.578308;87;436;5.04456e-05;10 mA;
436.608;0.579224;87.2;437;4.98352e-05;10 mA;
436.808;0.580139;87.4;438;4.95911e-05;10 mA;
437.008;0.58136;87.6;439;5.11169e-05;10 mA;
437.208;0.582275;87.8;440;5.09644e-05;10 mA;
437.408;0.583191;88;441;4.97131e-05;10 mA;
437.608;0.584106;88.2;442;4.92554e-05;10 mA;
437.808;0.585327;88.4;443;4.8645e-05;10 mA;
438.008;0.586243;88.6;444;4.84009e-05;10 mA;
438.208;0.587158;88.8;445;5.02625e-05;10 mA;
438.408;0.588074;89;446;4.98962e-05;10 mA;
438.608;0.589294;89.2;447;4.93164e-05;10 mA;
438.808;0.59021;89.4;448;5.00793e-05;10 mA;
439.008;0.591125;89.6;449;4.78516e-05;10 mA;
439.208;0.592041;89.8;450;4.96216e-05;10 mA;
439.408;0.592957;90;451;4.99573e-05;10 mA;
439.608;0.594177;90.2;452;4.96521e-05;10 mA;
439.808;0.595093;90.4;453;4.92554e-05;10 mA;
440.008;0.596008;90.6;454;5.03845e-05;10 mA;
440.208;0.596924;90.8;455;4.91333e-05;10 mA;
440.408;0.598145;91;456;5.05676e-05;10 mA;
440.608;0.59906;91.2;457;4.953e-05;10 mA;
440.808;0.599976;91.4;458;4.99268e-05;10 mA;
441.008;0.600891;91.6;459;4.85535e-05;10 mA;
441.208;0.601807;91.8;460;4.83704e-05;10 mA;
441.408;0.603027;92;461;5.03235e-05;10 mA;
441.608;0.603943;92.2;462;4.80957e-05;10 mA;
441.808;0.604858;92.4;463;4.953e-05;10 mA;
442.008;0.605774;92.6;464;5.05371e-05;10 mA;
442.208;0.606995;92.8;465;4.7699e-05;10 mA;
442.408;0.60791;93;466;4.91333e-05;10 mA;
442.608;0.608826;93.2;467;5.16357e-05;10 mA;
442.808;0.609741;93.4;468;5.07202e-05;10 mA;
443.008;0.610657;93.6;469;4.74548e-05;10 mA;
443.208;0.611877;93.8;470;4.83093e-05;10 mA;
443.408;0.612793;94;471;4.99573e-05;10 mA;
443.608;0.613708;94.2;472;4.98962e-05;10 mA;
443.808;0.614624;94.4;473;5.13e-05;10 mA;
444.008;0.61554;94.6;474;5.19409e-05;10 mA;
444.208;0.616455;94.8;475;5.01404e-05;10 mA;
444.408;0.617371;95;476;5.17883e-05;10 mA;
444.608;0.618591;95.2;477;4.91943e-05;10 mA;
444.808;0.619507;95.4;478;4.83398e-05;10 mA;
445.008;0.620422;95.6;479;5.10254e-05;10 mA;
445.208;0.621338;95.8;480;4.74548e-05;10 mA;
445.408;0.622253;96;481;4.75464e-05;10 mA;
445.608;0.623474;96.2;482;4.84009e-05;10 mA;
445.808;0.62439;96.4;483;5.16052e-05;10 mA;
446.008;0.625305;96.6;484;4.92554e-05;10 mA;
446.208;0.626221;96.8;485;5.15137e-05;10 mA;
446.408;0.627136;97;486;4.89502e-05;10 mA;
446.608;0.628357;97.2;487;4.97437e-05;10 mA;
446.808;0.629272;97.4;488;4.97742e-05;10 mA;
447.008;0.630188;97.6;489;5.09033e-05;10 mA;
447.208;0.631104;97.8;490;4.90112e-05;10 mA;
447.408;0.632019;98;491;4.97131e-05;10 mA;
447.608;0.632935;98.2;492;4.93164e-05;10 mA;
447.808;0.63385;98.4;493;4.91028e-05;10 mA;
448.008;0.635071;98.6;494;5.02319e-05;10 mA;
448.208;0.635986;98.8;495;5.15442e-05;10 mA;
448.408;0.636902;99;496;5.05066e-05;10 mA;
448.608;0.637817;99.2;497;4.76074e-05;10 mA;
448.808;0.638733;99.4;498;4.98962e-05;10 mA;
449.008;0.639648;99.6;499;5.18494e-05;10 mA;
449.208;0.640564;99.8;500;4.93164e-05;10 mA;
449.408;0.641479;100;501;5.06897e-05;10 mA;
449.608;0.642395;100.2;502;4.7699e-05;10 mA;
449.808;0.643311;100.4;503;4.99878e-05;10 mA;
450.008;0.644531;100.6;504;5.18799e-05;10 mA;
450.208;0.645447;100.8;505;4.97131e-05;10 mA;
450.408;0.646362;101;506;4.93164e-05;10 mA;
450.608;0.647278;101.2;507;4.76685e-05;10 mA;
450.808;0.648193;101.4;508;4.91333e-05;10 mA;
451.008;0.649109;101.6;509;5.02014e-05;10 mA;
451.208;0.650024;101.8;510;5.18188e-05;10 mA;
451.408;0.65094;102;511;4.76074e-05;10 mA;
451.608;0.651855;102.2;512;5.078125E-05;10 mA;
451.808;0.652771;102.4;513;5.03235e-05;10 mA;
452.008;0.653687;102.6;514;4.94385e-05;10 mA;
452.208;0.654602;102.8;515;5.01404e-05;10 mA;
452.408;0.655823;103;516;4.78516e-05;10 mA;
452.608;0.656738;103.2;517;5.08423e-05;10 mA;
452.808;0.657654;103.4;518;4.90723e-05;10 mA;
453.008;0.658569;103.6;519;5.03845e-05;10 mA;
453.208;0.659485;103.8;520;4.77295e-05;10 mA;
453.408;0.6604;104;521;4.75769e-05;10 mA;
453.608;0.661316;104.2;522;5.16357e-05;10 mA;
453.808;0.662231;104.4;523;5.22461e-05;10 mA;
454.008;0.663452;104.6;524;5.00488e-05;10 mA;
454.208;0.664368;104.8;525;4.98962e-05;10 mA;
454.408;0.665283;105;526;4.79126e-05;10 mA;
454.608;0.666199;105.2;527;4.80347e-05;10 mA;
454.808;0.667114;105.4;528;5.07507e-05;10 mA;
455.008;0.66803;105.6;529;4.98962e-05;10 mA;
455.208;0.66925;105.8;530;5.24292e-05;10 mA;
455.408;0.670166;106;531;5.27954e-05;10 mA;
455.608;0.671082;106.2;532;5.05371e-05;10 mA;
455.808;0.671997;106.4;533;4.95605e-05;10 mA;
456.008;0.672913;106.6;534;4.91333e-05;10 mA;
456.208;0.673828;106.8;535;4.87671e-05;10 mA;
456.408;0.674744;107;536;5.0415e-05;10 mA;
456.608;0.675659;107.2;537;5.04456e-05;10 mA;
456.808;0.676575;107.4;538;5.01709e-05;10 mA;
457.008;0.67749;107.6;539;5.05371e-05;10 mA;
457.208;0.678406;107.8;540;4.87671e-05;10 mA;
457.408;0.679321;108;541;4.90417e-05;10 mA;
457.608;0.680237;108.2;542;4.8645e-05;10 mA;
457.808;0.681152;108.4;543;5.13611e-05;10 mA;
458.008;0.682068;108.6;544;5.13916e-05;10 mA;
458.208;0.682983;108.8;545;4.9469e-05;10 mA;
458.408;0.683899;109;546;4.7699e-05;10 mA;
458.608;0.68512;109.2;547;4.9408e-05;10 mA;
458.808;0.68573;109.4;548;4.91943e-05;10 mA;
459.008;0.686951;109.6;549;4.99878e-05;10 mA;
459.208;0.687866;109.8;550;5.18188e-05;10 mA;
459.408;0.688477;110;551;4.98962e-05;10 mA;
459.608;0.689697;110.2;552;5.0354e-05;10 mA;
459.808;0.690613;110.4;553;4.79431e-05;10 mA;
460.008;0.691528;110.6;554;4.89807e-05;10 mA;
460.208;0.692444;110.8;555;4.87366e-05;10 mA;
460.408;0.693054;111;556;5.16968e-05;10 mA;
460.608;0.694275;111.2;557;4.92554e-05;10 mA;
460.808;0.69519;111.4;558;4.77905e-05;10 mA;
461.008;0.696106;111.6;559;5.06897e-05;10 mA;
461.208;0.697021;111.8;560;5.18494e-05;10 mA;
461.408;0.697937;112;561;5.11169e-05;10 mA;
461.608;0.698853;112.2;562;4.76379e-05;10 mA;
461.808;0.699463;112.4;563;5.10254e-05;10 mA;
462.008;0.700378;112.6;564;4.80042e-05;10 mA;
462.208;0.701294;112.8;565;4.89807e-05;10 mA;
462.408;0.702209;113;566;4.91638e-05;10 mA;
462.608;0.703125;113.2;567;5.05371e-05;10 mA;
462.808;0.704041;113.4;568;4.82788e-05;10 mA;
463.008;0.704956;113.6;569;4.9469e-05;10 mA;
463.208;0.705872;113.8;570;5.00793e-05;10 mA;
463.408;0.706787;114;571;5.02014e-05;10 mA;
463.608;0.707703;114.2;572;4.98962e-05;10 mA;
463.808;0.708313;114.4;573;5.16663e-05;10 mA;
464.008;0.709229;114.6;574;4.75159e-05;10 mA;
464.208;0.710144;114.8;575;5.0415e-05;10 mA;
464.408;0.71106;115;576;4.80042e-05;10 mA;
464.608;0.711975;115.2;577;4.87671e-05;10 mA;
464.808;0.712891;115.4;578;4.81567e-05;10 mA;
465.008;0.713806;115.6;579;4.82788e-05;10 mA;
465.208;0.714722;115.8;580;5.13611e-05;10 mA;
465.408;0.715637;116;581;4.953e-05;10 mA;
465.608;0.716553;116.2;582;4.85535e-05;10 mA;
465.808;0.717163;116.4;583;5.19714e-05;10 mA;
466.008;0.718079;116.6;584;4.79736e-05;10 mA;
466.208;0.718994;116.8;585;5.1178e-05;10 mA;
466.408;0.71991;117;586;5.10864e-05;10 mA;
466.608;0.720825;117.2;587;5.14832e-05;10 mA;
466.808;0.721741;117.4;588;4.99878e-05;10 mA;
467.008;0.722656;117.6;589;5.07507e-05;10 mA;
467.208;0.723572;117.8;590;4.89197e-05;10 mA;
467.408;0.724182;118;591;5.16357e-05;10 mA;
467.608;0.725098;118.2;592;4.91028e-05;10 mA;
467.808;0.726013;118.4;593;4.91333e-05;10 mA;
468.008;0.726929;118.6;594;4.83398e-05;10 mA;
468.208;0.727844;118.8;595;4.87671e-05;10 mA;
468.408;0.72876;119;596;4.83704e-05;10 mA;
468.608;0.729675;119.2;597;4.94385e-05;10 mA;
468.808;0.730591;119.4;598;4.80042e-05;10 mA;
469.008;0.731506;119.6;599;5.16968e-05;10 mA;
469.208;0.732117;119.8;600;5.05676e-05;10 mA;
469.408;0.733032;120;601;4.953e-05;10 mA;
469.608;0.733948;120.2;602;5.15442e-05;10 mA;
469.808;0.734863;120.4;603;4.91638e-05;10 mA;
470.008;0.735474;120.6;604;5.15442e-05;10 mA;
470.208;0.736389;120.8;605;4.93774e-05;10 mA;
470.408;0.737305;121;606;4.89807e-05;10 mA;
470.608;0.737915;121.2;607;4.89807e-05;10 mA;
470.808;0.738831;121.4;608;5.02014e-05;10 mA;
471.008;0.739746;121.6;609;5.00793e-05;10 mA;
471.208;0.740356;121.8;610;4.84314e-05;10 mA;
471.408;0.741272;122;611;5.04761e-05;10 mA;
471.608;0.7421875;122.2;612;5.16968e-05;10 mA;
471.808;0.743103;122.4;613;5.08423e-05;10 mA;
472.008;0.743713;122.6;614;4.90112e-05;10 mA;
472.208;0.744629;122.8;615;4.93469e-05;10 mA;
472.408;0.745239;123;616;5.06287e-05;10 mA;
472.608;0.746155;123.2;617;4.78821e-05;10 mA;
472.808;0.74707;123.4;618;4.80957e-05;10 mA;
473.008;0.747681;123.6;619;5.26123e-05;10 mA;
473.208;0.748596;123.8;620;5.14221e-05;10 mA;
473.408;0.749207;124;621;4.88281e-05;10 mA;
473.608;0.750122;124.2;622;4.79126e-05;10 mA;
473.808;0.751038;124.4;623;4.7699e-05;10 mA;
474.008;0.751648;124.6;624;4.91028e-05;10 mA;
474.208;0.752563;124.8;625;5.03845e-05;10 mA;
474.408;0.753479;125;626;5.01404e-05;10 mA;
474.608;0.754089;125.2;627;4.94385e-05;10 mA;
474.808;0.755005;125.4;628;5.31616e-05;10 mA;
475.008;0.755615;125.6;629;5.30701e-05;10 mA;
475.208;0.756531;125.8;630;4.93469e-05;10 mA;
475.408;0.757141;126;631;5.0293e-05;10 mA;
475.608;0.758057;126.2;632;5.18188e-05;10 mA;
475.808;0.758972;126.4;633;5.27649e-05;10 mA;
476.008;0.759583;126.6;634;4.91638e-05;10 mA;
476.208;0.760498;126.8;635;4.91638e-05;10 mA;
476.408;0.761108;127;636;4.953e-05;10 mA;
476.608;0.762024;127.2;637;5.31311e-05;10 mA;
476.808;0.762939;127.4;638;5.19409e-05;10 mA;
477.008;0.76355;127.6;639;4.90112e-05;10 mA;
477.208;0.764465;127.8;640;5.04456e-05;10 mA;
477.408;0.765076;128;641;4.89502e-05;10 mA;
477.608;0.765991;128.2;642;5.32532e-05;10 mA;
477.808;0.766602;128.4;643;5.24902e-05;10 mA;
478.008;0.767212;128.6;644;4.93469e-05;10 mA;
478.208;0.768127;128.8;645;5.09949e-05;10 mA;
478.408;0.769043;129;646;5.07507e-05;10 mA;
478.608;0.769653;129.2;647;5.09338e-05;10 mA;
478.808;0.770569;129.4;648;4.94385e-05;10 mA;
479.008;0.771179;129.6;649;4.953e-05;10 mA;
479.208;0.772095;129.8;650;4.953e-05;10 mA;
479.408;0.77301;130;651;4.87061e-05;10 mA;
479.608;0.773621;130.2;652;5.02014e-05;10 mA;
479.808;0.774231;130.4;653;4.76074e-05;10 mA;
480.008;0.775146;130.6;654;4.75464e-05;10 mA;
480.208;0.775757;130.8;655;4.74243e-05;10 mA;
480.408;0.776672;131;656;5.06897e-05;10 mA;
480.608;0.777283;131.2;657;4.7821e-05;10 mA;
480.808;0.777893;131.4;658;4.95911e-05;10 mA;
481.008;0.778503;131.6;659;4.92554e-05;10 mA;
481.208;0.779419;131.8;660;5.11475e-05;10 mA;
481.408;0.780029;132;661;4.71802e-05;10 mA;
481.608;0.780945;132.2;662;4.84009e-05;10 mA;
481.808;0.781555;132.4;663;5.11169e-05;10 mA;
482.008;0.782166;132.6;664;5.06897e-05;10 mA;
482.208;0.782776;132.8;665;5.1239e-05;10 mA;
482.408;0.783386;133;666;4.94385e-05;10 mA;
482.608;0.783997;133.2;667;5.14832e-05;10 mA;
482.808;0.784607;133.4;668;4.97437e-05;10 mA;
483.008;0.785522;133.6;669;4.81873e-05;10 mA;
483.208;0.786133;133.8;670;4.93164e-05;10 mA;
483.408;0.786743;134;671;5.16052e-05;10 mA;
483.608;0.787659;134.2;672;4.82788e-05;10 mA;
483.808;0.788269;134.4;673;5.12695e-05;10 mA;
484.008;0.788879;134.6;674;4.82178e-05;10 mA;
484.208;0.789795;134.8;675;4.80347e-05;10 mA;
484.408;0.790405;135;676;4.99878e-05;10 mA;
484.608;0.791016;135.2;677;4.79431e-05;10 mA;
484.808;0.791626;135.4;678;4.75464e-05;10 mA;
485.008;0.792542;135.6;679;5.14832e-05;10 mA;
485.208;0.793152;135.8;680;4.99573e-05;10 mA;
485.408;0.793762;136;681;4.97437e-05;10 mA;
485.608;0.794373;136.2;682;4.92859e-05;10 mA;
485.808;0.794983;136.4;683;5.15137e-05;10 mA;
486.008;0.795898;136.6;684;5.12695e-05;10 mA;
486.208;0.796509;136.8;685;4.84924e-05;10 mA;
486.408;0.797119;137;686;4.8584e-05;10 mA;
486.608;0.797729;137.2;687;5.07202e-05;10 mA;
486.808;0.798645;137.4;688;4.84314e-05;10 mA;
487.008;0.799255;137.6;689;4.91333e-05;10 mA;
487.208;0.799866;137.8;690;5.12085e-05;10 mA;
487.408;0.800476;138;691;4.83093e-05;10 mA;
487.608;0.801086;138.2;692;4.90112e-05;10 mA;
487.808;0.801697;138.4;693;4.79431e-05;10 mA;
488.008;0.802307;138.6;694;4.82483e-05;10 mA;
488.208;0.802917;138.8;695;5.0415e-05;10 mA;
488.408;0.803528;139;696;5.06592e-05;10 mA;
488.608;0.804138;139.2;697;5.04456e-05;10 mA;
488.808;0.805054;139.4;698;4.79126e-05;10 mA;
489.008;0.805664;139.6;699;5.1239e-05;10 mA;
489.208;0.806274;139.8;700;4.80957e-05;10 mA;
489.408;0.806885;140;701;4.94995e-05;10 mA;
489.608;0.807495;140.2;702;4.99878e-05;10 mA;
489.808;0.808105;140.4;703;4.96216e-05;10 mA;
490.008;0.808716;140.6;704;4.9469e-05;10 mA;
490.208;0.809326;140.8;705;5.08728e-05;10 mA;
490.408;0.809937;141;706;4.88892e-05;10 mA;
490.608;0.810547;141.2;707;4.88586e-05;10 mA;
490.808;0.811157;141.4;708;4.98657e-05;10 mA;
491.008;0.812073;141.6;709;4.79126e-05;10 mA;
491.208;0.812378;141.8;710;5.10559e-05;10 mA;
491.408;0.813293;142;711;4.92554e-05;10 mA;
491.608;0.813599;142.2;712;5.01709e-05;10 mA;
491.808;0.814209;142.4;713;4.79431e-05;10 mA;
492.008;0.814819;142.6;714;5.08423e-05;10 mA;
492.208;0.81543;142.8;715;4.80347e-05;10 mA;
492.408;0.81604;143;716;4.97742e-05;10 mA;
492.608;0.81665;143.2;717;5.1178e-05;10 mA;
492.808;0.817261;143.4;718;4.97437e-05;10 mA;
493.008;0.817871;143.6;719;4.88892e-05;10 mA;
493.208;0.818481;143.8;720;4.91333e-05;10 mA;
493.408;0.818787;144;721;4.75159e-05;10 mA;
493.608;0.819397;144.2;722;4.81567e-05;10 mA;
493.808;0.820007;144.4;723;5.00183e-05;10 mA;
494.008;0.820618;144.6;724;4.90723e-05;10 mA;
494.208;0.821228;144.8;725;4.98962e-05;10 mA;
494.408;0.821838;145;726;4.98657e-05;10 mA;
494.608;0.822449;145.2;727;4.97742e-05;10 mA;
494.808;0.823059;145.4;728;5.13e-05;10 mA;
495.008;0.823669;145.6;729;4.95605e-05;10 mA;
495.208;0.82428;145.8;730;4.83093e-05;10 mA;
495.408;0.824585;146;731;4.99573e-05;10 mA;
495.608;0.825195;146.2;732;4.84009e-05;10 mA;
495.808;0.825806;146.4;733;4.82178e-05;10 mA;
496.008;0.826111;146.6;734;5.09033e-05;10 mA;
496.208;0.826721;146.8;735;5.09949e-05;10 mA;
496.408;0.827332;147;736;4.7821e-05;10 mA;
496.608;0.827942;147.2;737;4.80957e-05;10 mA;
496.808;0.828552;147.4;738;5.08118e-05;10 mA;
497.008;0.828857;147.6;739;4.80042e-05;10 mA;
497.208;0.829468;147.8;740;5.02625e-05;10 mA;
497.408;0.830078;148;741;5.00488e-05;10 mA;
497.608;0.830688;148.2;742;4.9408e-05;10 mA;
497.808;0.830994;148.4;743;4.84009e-05;10 mA;
498.008;0.831604;148.6;744;4.91943e-05;10 mA;
498.208;0.832214;148.8;745;5.16052e-05;10 mA;
498.408;0.832825;149;746;4.88586e-05;10 mA;
498.608;0.83313;149.2;747;5.12085e-05;10 mA;
498.808;0.83374;149.4;748;5.10254e-05;10 mA;
499.008;0.834351;149.6;749;5.16968e-05;10 mA;
499.208;0.834656;149.8;750;4.79431e-05;10 mA;
499.408;0.835266;150;751;4.82178e-05;10 mA;
499.608;0.835571;150.2;752;4.73022e-05;10 mA;
499.808;0.836182;150.4;753;4.94385e-05;10 mA;
500.008;0.836792;150.6;754;4.91333e-05;10 mA;
500.208;0.837097;150.8;755;4.79431e-05;10 mA;
500.408;0.837708;151;756;4.953e-05;10 mA;
500.608;0.838318;151.2;757;5.13e-05;10 mA;
500.808;0.838623;151.4;758;4.69055e-05;10 mA;
501.008;0.839233;151.6;759;4.72717e-05;10 mA;
501.208;0.839844;151.8;760;5.30396e-05;10 mA;
501.408;0.840149;152;761;5.08728e-05;10 mA;
501.608;0.840759;152.2;762;5.30396e-05;10 mA;
501.808;0.84137;152.4;763;5.29785e-05;10 mA;
502.008;0.841675;152.6;764;4.99878e-05;10 mA;
502.208;0.842285;152.8;765;5.03235e-05;10 mA;
502.408;0.842896;153;766;4.95911e-05;10 mA;
502.608;0.843201;153.2;767;4.78516e-05;10 mA;
502.808;0.843811;153.4;768;4.9408e-05;10 mA;
503.008;0.844116;153.6;769;4.81873e-05;10 mA;
503.208;0.844727;153.8;770;4.91028e-05;10 mA;
503.408;0.845032;154;771;4.96216e-05;10 mA;
503.608;0.845642;154.2;772;4.93164e-05;10 mA;
503.808;0.845947;154.4;773;4.89807e-05;10 mA;
504.008;0.846558;154.6;774;4.93774e-05;10 mA;
504.208;0.847168;154.8;775;5.0415e-05;10 mA;
504.408;0.847473;155;776;4.99268e-05;10 mA;
504.608;0.847778;155.2;777;4.95911e-05;10 mA;
504.808;0.848389;155.4;778;4.88892e-05;10 mA;
505.008;0.848694;155.6;779;4.88281e-05;10 mA;
505.208;0.849304;155.8;780;5.04761e-05;10 mA;
505.408;0.849609;156;781;5.12085e-05;10 mA;
505.608;0.849915;156.2;782;4.78516e-05;10 mA;
505.808;0.850525;156.4;783;5.13306e-05;10 mA;WE(1).Potential > 0,85 V
506.008;0.85083;156.6;784;5.00793e-05;10 mA;WE(1).Potential > 0,85 V
506.208;0.851135;156.8;785;4.81567e-05;10 mA;WE(1).Potential > 0,85 V
506.408;0.851746;157;786;4.97742e-05;10 mA;WE(1).Potential > 0,85 V