File: Mxene1-1Ag-CARGA.txt
Time (s);WE(1).Potential (V);Corrected time (s);Index;WE(1).Current (A);Current range
1.7862;0.126923;0;1;1.55945e-05;10 mA
2.1862;0.129639;0.4;3;1.58386e-05;10 mA
2.5862;0.131989;0.8;5;1.57166e-05;10 mA
2.9862;0.134033;1.2;7;1.59607e-05;10 mA
3.3862;0.135925;1.6;9;1.58997e-05;10 mA
3.7862;0.137726;2;11;1.59302e-05;10 mA
4.1862;0.139435;2.4;13;1.56555e-05;10 mA
4.5862;0.141052;2.8;15;1.58997e-05;10 mA
4.9862;0.142609;3.2;17;1.55334e-05;10 mA
5.3862;0.144104;3.6;19;1.55945e-05;10 mA
5.7862;0.145599;4;21;1.57471e-05;10 mA
6.1862;0.147003;4.4;23;1.59607e-05;10 mA
6.5862;0.148376;4.8;25;1.59912e-05;10 mA
6.9862;0.14978;5.2;27;1.55945e-05;10 mA
7.3862;0.151123;5.6;29;1.54114e-05;10 mA
7.7862;0.152435;6;31;1.57471e-05;10 mA
8.1862;0.153748;6.4;33;1.59912e-05;10 mA
8.5862;0.155029;6.8;35;1.56555e-05;10 mA
8.9862;0.156311;7.2;37;1.59912e-05;10 mA
9.3862;0.157593;7.6;39;1.57776e-05;10 mA
9.7862;0.158844;8;41;1.59302e-05;10 mA
10.1862;0.160065;8.4;43;1.5625e-05;10 mA
10.5862;0.161316;8.8;45;1.59302e-05;10 mA
10.9862;0.162506;9.2;47;1.55945e-05;10 mA
11.3862;0.163666;9.6;49;1.57776e-05;10 mA
11.7862;0.164825;10;51;1.58081e-05;10 mA
12.1862;0.166016;10.4;53;1.57471e-05;10 mA
12.5862;0.167145;10.8;55;1.62659e-05;10 mA
12.9862;0.168304;11.2;57;1.57471e-05;10 mA
13.3862;0.169434;11.6;59;1.5625e-05;10 mA
13.7862;0.170563;12;61;1.56555e-05;10 mA
14.1862;0.171661;12.4;63;1.60522e-05;10 mA
14.5862;0.172729;12.8;65;1.5625e-05;10 mA
14.9862;0.173767;13.2;67;1.55334e-05;10 mA
15.3862;0.174805;13.6;69;1.58997e-05;10 mA
15.7862;0.175842;14;71;1.5564e-05;10 mA
16.1862;0.17688;14.4;73;1.58081e-05;10 mA
16.5862;0.177917;14.8;75;1.60828e-05;10 mA
16.9862;0.178955;15.2;77;1.56555e-05;10 mA
17.3862;0.179993;15.6;79;1.57471e-05;10 mA
17.7862;0.181;16;81;1.57471e-05;10 mA
18.1862;0.182068;16.4;83;1.57776e-05;10 mA
18.5862;0.183044;16.8;85;1.57166e-05;10 mA
18.9862;0.184052;17.2;87;1.61133e-05;10 mA
19.3862;0.185028;17.6;89;1.58081e-05;10 mA
19.7862;0.186005;18;91;1.54419e-05;10 mA
20.1862;0.186981;18.4;93;1.5625e-05;10 mA
20.5862;0.187958;18.8;95;1.57471e-05;10 mA
20.9862;0.188904;19.2;97;1.57776e-05;10 mA
21.3862;0.18985;19.6;99;1.57471e-05;10 mA
21.7862;0.190826;20;101;1.56555e-05;10 mA
22.1862;0.191772;20.4;103;1.62048e-05;10 mA
22.5862;0.192688;20.8;105;1.57776e-05;10 mA
22.9862;0.193573;21.2;107;1.57471e-05;10 mA
23.3862;0.194489;21.6;109;1.57471e-05;10 mA
23.7862;0.195435;22;111;1.58081e-05;10 mA
24.1862;0.19635;22.4;113;1.58081e-05;10 mA
24.5862;0.197205;22.8;115;1.56555e-05;10 mA
24.9862;0.19812;23.2;117;1.56555e-05;10 mA
25.3862;0.199005;23.6;119;1.57166e-05;10 mA
25.7862;0.199921;24;121;1.58386e-05;10 mA
26.1862;0.200775;24.4;123;1.57471e-05;10 mA
26.5862;0.201691;24.8;125;1.59302e-05;10 mA
26.9862;0.202606;25.2;127;1.57471e-05;10 mA
27.3862;0.203461;25.6;129;1.57776e-05;10 mA
27.7862;0.204346;26;131;1.60522e-05;10 mA
28.1862;0.205231;26.4;133;1.5686e-05;10 mA
28.5862;0.206055;26.8;135;1.59607e-05;10 mA
28.9862;0.206909;27.2;137;1.5686e-05;10 mA
29.3862;0.207764;27.6;139;1.58691e-05;10 mA
29.7862;0.208618;28;141;1.58997e-05;10 mA
30.1862;0.209473;28.4;143;1.59607e-05;10 mA
30.5862;0.210327;28.8;145;1.58997e-05;10 mA
30.9862;0.211151;29.2;147;1.58081e-05;10 mA
31.3862;0.211975;29.6;149;1.58081e-05;10 mA
31.7862;0.212799;30;151;1.61133e-05;10 mA
32.1862;0.213623;30.4;153;1.61438e-05;10 mA
32.5862;0.214447;30.8;155;1.59302e-05;10 mA
32.9862;0.215271;31.2;157;1.57471e-05;10 mA
33.3862;0.216064;31.6;159;1.59912e-05;10 mA
33.7862;0.216888;32;161;1.54114e-05;10 mA
34.1862;0.217651;32.4;163;1.56555e-05;10 mA
34.5862;0.218414;32.8;165;1.57776e-05;10 mA
34.9862;0.219177;33.2;167;1.54114e-05;10 mA
35.3862;0.21994;33.6;169;1.57776e-05;10 mA
35.7862;0.220734;34;171;1.55029e-05;10 mA
36.1862;0.221466;34.4;173;1.59912e-05;10 mA
36.5862;0.22226;34.8;175;1.58997e-05;10 mA
36.9862;0.223022;35.2;177;1.58997e-05;10 mA
37.3862;0.223785;35.6;179;1.57776e-05;10 mA
37.7862;0.224548;36;181;1.55945e-05;10 mA
38.1862;0.225311;36.4;183;1.58691e-05;10 mA
38.5862;0.226074;36.8;185;1.59302e-05;10 mA
38.9862;0.226807;37.2;187;1.5686e-05;10 mA
39.3862;0.227539;37.6;189;1.55945e-05;10 mA
39.7862;0.228271;38;191;1.57776e-05;10 mA
40.1862;0.229004;38.4;193;1.58691e-05;10 mA
40.5862;0.229736;38.8;195;1.57471e-05;10 mA
40.9862;0.230469;39.2;197;1.56555e-05;10 mA
41.3862;0.231201;39.6;199;1.54724e-05;10 mA
41.7862;0.231903;40;201;1.5625e-05;10 mA
42.1862;0.232605;40.4;203;1.57776e-05;10 mA
42.5862;0.233307;40.8;205;1.57776e-05;10 mA
42.9862;0.234009;41.2;207;1.57166e-05;10 mA
43.3862;0.23468;41.6;209;1.57166e-05;10 mA
43.7862;0.235413;42;211;1.59912e-05;10 mA
44.1862;0.236115;42.4;213;1.57776e-05;10 mA
44.5862;0.236816;42.8;215;1.62659e-05;10 mA
44.9862;0.237518;43.2;217;1.55945e-05;10 mA
45.3862;0.238251;43.6;219;1.57776e-05;10 mA
45.7862;0.238983;44;221;1.56555e-05;10 mA
46.1862;0.239685;44.4;223;1.58997e-05;10 mA
46.5862;0.240387;44.8;225;1.5625e-05;10 mA
46.9862;0.241119;45.2;227;1.5686e-05;10 mA
47.3862;0.241852;45.6;229;1.57166e-05;10 mA
47.7862;0.242554;46;231;1.60522e-05;10 mA
48.1862;0.243256;46.4;233;1.57471e-05;10 mA
48.5862;0.243958;46.8;235;1.57776e-05;10 mA
48.9862;0.24469;47.2;237;1.58081e-05;10 mA
49.3862;0.245361;47.6;239;1.59912e-05;10 mA
49.7862;0.246063;48;241;1.57776e-05;10 mA
50.1862;0.246826;48.4;243;1.58386e-05;10 mA
50.5862;0.247498;48.8;245;1.54724e-05;10 mA
50.9862;0.248199;49.2;247;1.57471e-05;10 mA
51.3862;0.248901;49.6;249;1.5564e-05;10 mA
51.7862;0.249573;50;251;1.5625e-05;10 mA
52.1862;0.250275;50.4;253;1.56555e-05;10 mA
52.5862;0.250977;50.8;255;1.57166e-05;10 mA
52.9862;0.251678;51.2;257;1.5625e-05;10 mA
53.3862;0.25238;51.6;259;1.57776e-05;10 mA
53.7862;0.253082;52;261;1.5686e-05;10 mA
54.1862;0.253723;52.4;263;1.58081e-05;10 mA
54.5862;0.254395;52.8;265;1.58081e-05;10 mA
54.9862;0.255096;53.2;267;1.58997e-05;10 mA
55.3862;0.255768;53.6;269;1.59302e-05;10 mA
55.7862;0.256439;54;271;1.60522e-05;10 mA
56.1862;0.25708;54.4;273;1.58081e-05;10 mA
56.5862;0.257782;54.8;275;1.59607e-05;10 mA
56.9862;0.258423;55.2;277;1.55945e-05;10 mA
57.3862;0.259094;55.6;279;1.58386e-05;10 mA
57.7862;0.259766;56;281;1.58386e-05;10 mA
58.1862;0.260406;56.4;283;1.56555e-05;10 mA
58.5862;0.261078;56.8;285;1.57776e-05;10 mA
58.9862;0.261749;57.2;287;1.58081e-05;10 mA
59.3862;0.262421;57.6;289;1.59302e-05;10 mA
59.7862;0.263062;58;291;1.5564e-05;10 mA
60.1862;0.263702;58.4;293;1.57471e-05;10 mA
60.5862;0.264374;58.8;295;1.53809e-05;10 mA
60.9862;0.265015;59.2;297;1.58997e-05;10 mA
61.3862;0.265656;59.6;299;1.5686e-05;10 mA
61.7862;0.266327;60;301;1.60217e-05;10 mA
62.1862;0.266998;60.4;303;1.60217e-05;10 mA
62.5862;0.267609;60.8;305;1.62048e-05;10 mA
62.9862;0.26825;61.2;307;1.55334e-05;10 mA
63.3862;0.268921;61.6;309;1.61743e-05;10 mA
63.7862;0.269562;62;311;1.5564e-05;10 mA
64.1862;0.270172;62.4;313;1.55945e-05;10 mA
64.5862;0.270813;62.8;315;1.58997e-05;10 mA
64.9862;0.271393;63.2;317;1.56555e-05;10 mA
65.3862;0.272003;63.6;319;1.58691e-05;10 mA
65.7862;0.272583;64;321;1.5625e-05;10 mA
66.1862;0.273224;64.4;323;1.56555e-05;10 mA
66.5862;0.273834;64.8;325;1.59607e-05;10 mA
66.9862;0.274445;65.2;327;1.58691e-05;10 mA
67.3862;0.275024;65.6;329;1.59912e-05;10 mA
67.7862;0.275635;66;331;1.5564e-05;10 mA
68.1862;0.276215;66.4;333;1.55945e-05;10 mA
68.5862;0.276764;66.8;335;1.60828e-05;10 mA
68.9862;0.277405;67.2;337;1.5686e-05;10 mA
69.3862;0.277985;67.6;339;1.57776e-05;10 mA
69.7862;0.278564;68;341;1.58997e-05;10 mA
70.1862;0.279205;68.4;343;1.55029e-05;10 mA
70.5862;0.279816;68.8;345;1.61133e-05;10 mA
70.9862;0.280426;69.2;347;1.58081e-05;10 mA
71.3862;0.281006;69.6;349;1.5564e-05;10 mA
71.7862;0.281616;70;351;1.55334e-05;10 mA
72.1862;0.282196;70.4;353;1.58997e-05;10 mA
72.5862;0.282806;70.8;355;1.60828e-05;10 mA
72.9862;0.283386;71.2;357;1.58997e-05;10 mA
73.3862;0.283966;71.6;359;1.59302e-05;10 mA
73.7862;0.284546;72;361;1.58081e-05;10 mA
74.1862;0.285126;72.4;363;1.57166e-05;10 mA
74.5862;0.285706;72.8;365;1.60828e-05;10 mA
74.9862;0.286285;73.2;367;1.61438e-05;10 mA
75.3862;0.286865;73.6;369;1.5625e-05;10 mA
75.7862;0.287476;74;371;1.57776e-05;10 mA
76.1862;0.288025;74.4;373;1.59912e-05;10 mA
76.5862;0.288605;74.8;375;1.58386e-05;10 mA
76.9862;0.289185;75.2;377;1.57166e-05;10 mA
77.3862;0.289734;75.6;379;1.52588e-05;10 mA
77.7862;0.290283;76;381;1.57776e-05;10 mA
78.1862;0.290833;76.4;383;1.58691e-05;10 mA
78.5862;0.291382;76.8;385;1.58691e-05;10 mA
78.9862;0.291962;77.2;387;1.57776e-05;10 mA
79.3862;0.292511;77.6;389;1.54419e-05;10 mA
79.7862;0.293091;78;391;1.59607e-05;10 mA
80.1862;0.29364;78.4;393;1.58997e-05;10 mA
80.5862;0.29422;78.8;395;1.51978e-05;10 mA
80.9862;0.2948;79.2;397;1.5686e-05;10 mA
81.3862;0.295349;79.6;399;1.54724e-05;10 mA
81.7862;0.295898;80;401;1.5564e-05;10 mA
82.1862;0.296448;80.4;403;1.60828e-05;10 mA
82.5862;0.296967;80.8;405;1.58386e-05;10 mA
82.9862;0.297516;81.2;407;1.5564e-05;10 mA
83.3862;0.298065;81.6;409;1.60217e-05;10 mA
83.7862;0.298584;82;411;1.56555e-05;10 mA
84.1862;0.299133;82.4;413;1.5564e-05;10 mA
84.5862;0.299652;82.8;415;1.58386e-05;10 mA
84.9862;0.300201;83.2;417;1.61133e-05;10 mA
85.3862;0.300751;83.6;419;1.5625e-05;10 mA
85.7862;0.301361;84;421;1.58997e-05;10 mA
86.1862;0.30188;84.4;423;1.53809e-05;10 mA
86.5862;0.302429;84.8;425;1.58691e-05;10 mA
86.9862;0.302979;85.2;427;1.59912e-05;10 mA
87.3862;0.303528;85.6;429;1.57471e-05;10 mA
87.7862;0.304077;86;431;1.5686e-05;10 mA
88.1862;0.304596;86.4;433;1.5625e-05;10 mA
88.5862;0.305115;86.8;435;1.58997e-05;10 mA
88.9862;0.305664;87.2;437;1.58997e-05;10 mA
89.3862;0.306213;87.6;439;1.55029e-05;10 mA
89.7862;0.306763;88;441;1.5564e-05;10 mA
90.1862;0.307281;88.4;443;1.55029e-05;10 mA
90.5862;0.307831;88.8;445;1.60217e-05;10 mA
90.9862;0.30835;89.2;447;1.57776e-05;10 mA
91.3862;0.308868;89.6;449;1.55945e-05;10 mA
91.7862;0.309418;90;451;1.5686e-05;10 mA
92.1862;0.309937;90.4;453;1.58081e-05;10 mA
92.5862;0.310455;90.8;455;1.5564e-05;10 mA
92.9862;0.310974;91.2;457;1.57776e-05;10 mA
93.3862;0.311523;91.6;459;1.59912e-05;10 mA
93.7862;0.312073;92;461;1.58691e-05;10 mA
94.1862;0.312592;92.4;463;1.57776e-05;10 mA
94.5862;0.313141;92.8;465;1.57471e-05;10 mA
94.9862;0.31366;93.2;467;1.57166e-05;10 mA
95.3862;0.314178;93.6;469;1.59912e-05;10 mA
95.7862;0.314697;94;471;1.5686e-05;10 mA
96.1862;0.315216;94.4;473;1.5686e-05;10 mA
96.5862;0.315704;94.8;475;1.57471e-05;10 mA
96.9862;0.316193;95.2;477;1.60217e-05;10 mA
97.3862;0.316742;95.6;479;1.56555e-05;10 mA
97.7862;0.31723;96;481;1.59302e-05;10 mA
98.1862;0.31778;96.4;483;1.56555e-05;10 mA
98.5862;0.318268;96.8;485;1.58691e-05;10 mA
98.9862;0.318756;97.2;487;1.55945e-05;10 mA
99.3862;0.319275;97.6;489;1.58081e-05;10 mA
99.7862;0.319794;98;491;1.59607e-05;10 mA
100.186;0.3203125;98.4;493;1.56555e-05;10 mA
100.586;0.320831;98.8;495;1.57166e-05;10 mA
100.986;0.32132;99.2;497;1.57166e-05;10 mA
101.386;0.321838;99.6;499;1.5686e-05;10 mA
101.786;0.322327;100;501;1.60522e-05;10 mA
102.186;0.322845;100.4;503;1.5686e-05;10 mA
102.586;0.323334;100.8;505;1.58081e-05;10 mA
102.986;0.323822;101.2;507;1.59912e-05;10 mA
103.386;0.324371;101.6;509;1.59302e-05;10 mA
103.786;0.32486;102;511;1.5625e-05;10 mA
104.186;0.325348;102.4;513;1.58997e-05;10 mA
104.586;0.325867;102.8;515;1.58997e-05;10 mA
104.986;0.326355;103.2;517;1.59302e-05;10 mA
105.386;0.326874;103.6;519;1.58386e-05;10 mA
105.786;0.327332;104;521;1.61743e-05;10 mA
106.186;0.32785;104.4;523;1.60522e-05;10 mA
106.586;0.328339;104.8;525;1.59607e-05;10 mA
106.986;0.328827;105.2;527;1.58386e-05;10 mA
107.386;0.329315;105.6;529;1.62048e-05;10 mA
107.786;0.329803;106;531;1.59302e-05;10 mA
108.186;0.330292;106.4;533;1.5686e-05;10 mA
108.586;0.33078;106.8;535;1.57166e-05;10 mA
108.986;0.331268;107.2;537;1.58691e-05;10 mA
109.386;0.331726;107.6;539;1.60217e-05;10 mA
109.786;0.332214;108;541;1.58386e-05;10 mA
110.186;0.332672;108.4;543;1.57776e-05;10 mA
110.586;0.33313;108.8;545;1.58386e-05;10 mA
110.986;0.333557;109.2;547;1.5686e-05;10 mA
111.386;0.334076;109.6;549;1.60217e-05;10 mA
111.786;0.334534;110;551;1.55945e-05;10 mA
112.186;0.334991;110.4;553;1.57471e-05;10 mA
112.586;0.335449;110.8;555;1.5625e-05;10 mA
112.986;0.3359375;111.2;557;1.59607e-05;10 mA
113.386;0.336395;111.6;559;1.58386e-05;10 mA
113.786;0.336853;112;561;1.55029e-05;10 mA
114.186;0.337311;112.4;563;1.57776e-05;10 mA
114.586;0.337769;112.8;565;1.58997e-05;10 mA
114.986;0.338257;113.2;567;1.59302e-05;10 mA
115.386;0.338715;113.6;569;1.57776e-05;10 mA
115.786;0.339172;114;571;1.55334e-05;10 mA
116.186;0.33963;114.4;573;1.58386e-05;10 mA
116.586;0.340057;114.8;575;1.57471e-05;10 mA
116.986;0.340546;115.2;577;1.61438e-05;10 mA
117.386;0.341003;115.6;579;1.56555e-05;10 mA
117.786;0.341461;116;581;1.61743e-05;10 mA
118.186;0.341919;116.4;583;1.58386e-05;10 mA
118.586;0.342377;116.8;585;1.5564e-05;10 mA
118.986;0.342865;117.2;587;1.57471e-05;10 mA
119.386;0.343323;117.6;589;1.54419e-05;10 mA
119.786;0.343781;118;591;1.54419e-05;10 mA
120.186;0.344238;118.4;593;1.55945e-05;10 mA
120.586;0.344696;118.8;595;1.57471e-05;10 mA
120.986;0.345123;119.2;597;1.58997e-05;10 mA
121.386;0.345581;119.6;599;1.57776e-05;10 mA
121.786;0.346008;120;601;1.57776e-05;10 mA
122.186;0.346466;120.4;603;1.55945e-05;10 mA
122.586;0.346924;120.8;605;1.57776e-05;10 mA
122.986;0.347382;121.2;607;1.5564e-05;10 mA
123.386;0.34787;121.6;609;1.56555e-05;10 mA
123.786;0.348328;122;611;1.61743e-05;10 mA
124.186;0.348785;122.4;613;1.62964e-05;10 mA
124.586;0.349243;122.8;615;1.57166e-05;10 mA
124.986;0.349731;123.2;617;1.54114e-05;10 mA
125.386;0.350189;123.6;619;1.57471e-05;10 mA
125.786;0.350647;124;621;1.58081e-05;10 mA
126.186;0.351074;124.4;623;1.5625e-05;10 mA
126.586;0.3515625;124.8;625;1.58081e-05;10 mA
126.986;0.35199;125.2;627;1.55029e-05;10 mA
127.386;0.352448;125.6;629;1.58081e-05;10 mA
127.786;0.352875;126;631;1.58691e-05;10 mA
128.186;0.353333;126.4;633;1.57471e-05;10 mA
128.586;0.35376;126.8;635;1.5564e-05;10 mA
128.986;0.354187;127.2;637;1.58997e-05;10 mA
129.386;0.354645;127.6;639;1.5625e-05;10 mA
129.786;0.355072;128;641;1.57776e-05;10 mA
130.186;0.35553;128.4;643;1.57776e-05;10 mA
130.586;0.355988;128.8;645;1.59607e-05;10 mA
130.986;0.356445;129.2;647;1.60828e-05;10 mA
131.386;0.356873;129.6;649;1.58081e-05;10 mA
131.786;0.35733;130;651;1.58386e-05;10 mA
132.186;0.357788;130.4;653;1.54114e-05;10 mA
132.586;0.358246;130.8;655;1.61438e-05;10 mA
132.986;0.358673;131.2;657;1.57776e-05;10 mA
133.386;0.359131;131.6;659;1.57471e-05;10 mA
133.786;0.359589;132;661;1.55334e-05;10 mA
134.186;0.360016;132.4;663;1.58081e-05;10 mA
134.586;0.360443;132.8;665;1.57471e-05;10 mA
134.986;0.360901;133.2;667;1.60217e-05;10 mA
135.386;0.361389;133.6;669;1.58081e-05;10 mA
135.786;0.361847;134;671;1.57776e-05;10 mA
136.186;0.362305;134.4;673;1.58997e-05;10 mA
136.586;0.362762;134.8;675;1.5625e-05;10 mA
136.986;0.36319;135.2;677;1.59302e-05;10 mA
137.386;0.363647;135.6;679;1.60828e-05;10 mA
137.786;0.364105;136;681;1.58997e-05;10 mA
138.186;0.364502;136.4;683;1.57471e-05;10 mA
138.586;0.36496;136.8;685;1.5686e-05;10 mA
138.986;0.365387;137.2;687;1.58997e-05;10 mA
139.386;0.365814;137.6;689;1.58386e-05;10 mA
139.786;0.366241;138;691;1.58691e-05;10 mA
140.186;0.366699;138.4;693;1.58081e-05;10 mA
140.586;0.367126;138.8;695;1.56555e-05;10 mA
140.986;0.367554;139.2;697;1.58691e-05;10 mA
141.386;0.367981;139.6;699;1.60217e-05;10 mA
141.786;0.368408;140;701;1.55945e-05;10 mA
142.186;0.368835;140.4;703;1.58691e-05;10 mA
142.586;0.369263;140.8;705;1.58386e-05;10 mA
142.986;0.36972;141.2;707;1.59912e-05;10 mA
143.386;0.370148;141.6;709;1.57471e-05;10 mA
143.786;0.370575;142;711;1.56555e-05;10 mA
144.186;0.371033;142.4;713;1.59302e-05;10 mA
144.586;0.37149;142.8;715;1.57166e-05;10 mA
144.986;0.371948;143.2;717;1.57776e-05;10 mA
145.386;0.372375;143.6;719;1.54419e-05;10 mA
145.786;0.372803;144;721;1.57776e-05;10 mA
146.186;0.37326;144.4;723;1.60217e-05;10 mA
146.586;0.373688;144.8;725;1.58691e-05;10 mA
146.986;0.374115;145.2;727;1.61438e-05;10 mA
147.386;0.374542;145.6;729;1.62048e-05;10 mA
147.786;0.374969;146;731;1.62659e-05;10 mA
148.186;0.375427;146.4;733;1.5686e-05;10 mA
148.586;0.375885;146.8;735;1.57471e-05;10 mA
148.986;0.376312;147.2;737;1.55945e-05;10 mA
149.386;0.37674;147.6;739;1.58081e-05;10 mA
149.786;0.377167;148;741;1.60522e-05;10 mA
150.186;0.377625;148.4;743;1.58997e-05;10 mA
150.586;0.378082;148.8;745;1.5686e-05;10 mA
150.986;0.37851;149.2;747;1.58691e-05;10 mA
151.386;0.378967;149.6;749;1.57776e-05;10 mA
151.786;0.379395;150;751;1.57166e-05;10 mA
152.186;0.379822;150.4;753;1.56555e-05;10 mA
152.586;0.38028;150.8;755;1.5564e-05;10 mA
152.986;0.380737;151.2;757;1.58997e-05;10 mA
153.386;0.381195;151.6;759;1.58386e-05;10 mA
153.786;0.381653;152;761;1.5686e-05;10 mA
154.186;0.38208;152.4;763;1.60522e-05;10 mA
154.586;0.382538;152.8;765;1.58081e-05;10 mA
154.986;0.382996;153.2;767;1.58081e-05;10 mA
155.386;0.383453;153.6;769;1.5686e-05;10 mA
155.786;0.383881;154;771;1.59912e-05;10 mA
156.186;0.384338;154.4;773;1.58691e-05;10 mA
156.586;0.384766;154.8;775;1.5686e-05;10 mA
156.986;0.385193;155.2;777;1.58386e-05;10 mA
157.386;0.385651;155.6;779;1.5625e-05;10 mA
157.786;0.386078;156;781;1.54419e-05;10 mA
158.186;0.386536;156.4;783;1.58691e-05;10 mA
158.586;0.386993;156.8;785;1.55945e-05;10 mA
158.986;0.387421;157.2;787;1.59607e-05;10 mA
159.386;0.387909;157.6;789;1.58386e-05;10 mA
159.786;0.388336;158;791;1.57776e-05;10 mA
160.186;0.388794;158.4;793;1.61133e-05;10 mA
160.586;0.389221;158.8;795;1.5564e-05;10 mA
160.986;0.389679;159.2;797;1.59912e-05;10 mA
161.386;0.390106;159.6;799;1.58691e-05;10 mA
161.786;0.390564;160;801;1.58691e-05;10 mA
162.186;0.390961;160.4;803;1.58997e-05;10 mA
162.586;0.391418;160.8;805;1.60828e-05;10 mA
162.986;0.391876;161.2;807;1.58081e-05;10 mA
163.386;0.392334;161.6;809;1.58081e-05;10 mA
163.786;0.392761;162;811;1.5625e-05;10 mA
164.186;0.393219;162.4;813;1.58081e-05;10 mA
164.586;0.393646;162.8;815;1.58691e-05;10 mA
164.986;0.394104;163.2;817;1.57776e-05;10 mA
165.386;0.394562;163.6;819;1.57776e-05;10 mA
165.786;0.39502;164;821;1.57471e-05;10 mA
166.186;0.395447;164.4;823;1.57471e-05;10 mA
166.586;0.395905;164.8;825;1.59912e-05;10 mA
166.986;0.396362;165.2;827;1.59912e-05;10 mA
167.386;0.39679;165.6;829;1.57166e-05;10 mA
167.786;0.397247;166;831;1.59607e-05;10 mA
168.186;0.397705;166.4;833;1.60522e-05;10 mA
168.586;0.398163;166.8;835;1.61438e-05;10 mA
168.986;0.39859;167.2;837;1.58081e-05;10 mA
169.386;0.399017;167.6;839;1.61133e-05;10 mA
169.786;0.399506;168;841;1.55945e-05;10 mA
170.186;0.399963;168.4;843;1.60217e-05;10 mA
170.586;0.400391;168.8;845;1.61438e-05;10 mA
170.986;0.400879;169.2;847;1.59302e-05;10 mA
171.386;0.401306;169.6;849;1.58691e-05;10 mA
171.786;0.401764;170;851;1.58691e-05;10 mA
172.186;0.402222;170.4;853;1.5686e-05;10 mA
172.586;0.402679;170.8;855;1.58691e-05;10 mA
172.986;0.403107;171.2;857;1.55945e-05;10 mA
173.386;0.403534;171.6;859;1.60217e-05;10 mA
173.786;0.403992;172;861;1.55334e-05;10 mA
174.186;0.404449;172.4;863;1.57776e-05;10 mA
174.586;0.404907;172.8;865;1.61438e-05;10 mA
174.986;0.405365;173.2;867;1.5686e-05;10 mA
175.386;0.405823;173.6;869;1.58081e-05;10 mA
175.786;0.40625;174;871;1.58081e-05;10 mA
176.186;0.406677;174.4;873;1.59912e-05;10 mA
176.586;0.407104;174.8;875;1.58386e-05;10 mA
176.986;0.407562;175.2;877;1.58997e-05;10 mA
177.386;0.40802;175.6;879;1.5625e-05;10 mA
177.786;0.408447;176;881;1.58997e-05;10 mA
178.186;0.408905;176.4;883;1.59302e-05;10 mA
178.586;0.409393;176.8;885;1.57471e-05;10 mA
178.986;0.409821;177.2;887;1.56555e-05;10 mA
179.386;0.410278;177.6;889;1.59912e-05;10 mA
179.786;0.410736;178;891;1.58386e-05;10 mA
180.186;0.411224;178.4;893;1.58386e-05;10 mA
180.586;0.411621;178.8;895;1.5625e-05;10 mA
180.986;0.412079;179.2;897;1.54724e-05;10 mA
181.386;0.412506;179.6;899;1.5686e-05;10 mA
181.786;0.412964;180;901;1.58997e-05;10 mA
182.186;0.413391;180.4;903;1.59912e-05;10 mA
182.586;0.413818;180.8;905;1.5686e-05;10 mA
182.986;0.414307;181.2;907;1.59302e-05;10 mA
183.386;0.414764;181.6;909;1.58997e-05;10 mA
183.786;0.415192;182;911;1.59302e-05;10 mA
184.186;0.415649;182.4;913;1.56555e-05;10 mA
184.586;0.416077;182.8;915;1.58691e-05;10 mA
184.986;0.416534;183.2;917;1.59912e-05;10 mA
185.386;0.416992;183.6;919;1.61133e-05;10 mA
185.786;0.41745;184;921;1.61133e-05;10 mA
186.186;0.417938;184.4;923;1.58386e-05;10 mA
186.586;0.418396;184.8;925;1.61133e-05;10 mA
186.986;0.418854;185.2;927;1.58997e-05;10 mA
187.386;0.419342;185.6;929;1.58997e-05;10 mA
187.786;0.41983;186;931;1.5564e-05;10 mA
188.186;0.420288;186.4;933;1.59302e-05;10 mA
188.586;0.420746;186.8;935;1.60522e-05;10 mA
188.986;0.421234;187.2;937;1.5625e-05;10 mA
189.386;0.421692;187.6;939;1.58997e-05;10 mA
189.786;0.42215;188;941;1.60828e-05;10 mA
190.186;0.422607;188.4;943;1.58997e-05;10 mA
190.586;0.423065;188.8;945;1.57776e-05;10 mA
190.986;0.423492;189.2;947;1.62048e-05;10 mA
191.386;0.42392;189.6;949;1.59912e-05;10 mA
191.786;0.424347;190;951;1.58081e-05;10 mA
192.186;0.424805;190.4;953;1.58386e-05;10 mA
192.586;0.425232;190.8;955;1.58997e-05;10 mA
192.986;0.42569;191.2;957;1.55029e-05;10 mA
193.386;0.426117;191.6;959;1.58691e-05;10 mA
193.786;0.426575;192;961;1.61438e-05;10 mA
194.186;0.427002;192.4;963;1.58997e-05;10 mA
194.586;0.427429;192.8;965;1.58997e-05;10 mA
194.986;0.427887;193.2;967;1.5564e-05;10 mA
195.386;0.428345;193.6;969;1.55945e-05;10 mA
195.786;0.428802;194;971;1.55334e-05;10 mA
196.186;0.429291;194.4;973;1.57776e-05;10 mA
196.586;0.429779;194.8;975;1.58691e-05;10 mA
196.986;0.430237;195.2;977;1.59302e-05;10 mA
197.386;0.430664;195.6;979;1.57471e-05;10 mA
197.786;0.431091;196;981;1.60217e-05;10 mA
198.186;0.431549;196.4;983;1.5564e-05;10 mA
198.586;0.431976;196.8;985;1.59912e-05;10 mA
198.986;0.432434;197.2;987;1.5625e-05;10 mA
199.386;0.432892;197.6;989;1.59302e-05;10 mA
199.786;0.43338;198;991;1.60522e-05;10 mA
200.186;0.433838;198.4;993;1.55029e-05;10 mA
200.586;0.434296;198.8;995;1.61743e-05;10 mA
200.986;0.434753;199.2;997;1.58691e-05;10 mA
201.386;0.435242;199.6;999;1.60828e-05;10 mA
201.786;0.435699;200;1001;1.57471e-05;10 mA
202.186;0.436157;200.4;1003;1.5686e-05;10 mA
202.586;0.436615;200.8;1005;1.57166e-05;10 mA
202.986;0.437073;201.2;1007;1.5564e-05;10 mA
203.386;0.437561;201.6;1009;1.60828e-05;10 mA
203.786;0.438019;202;1011;1.57471e-05;10 mA
204.186;0.438477;202.4;1013;1.58997e-05;10 mA
204.586;0.438934;202.8;1015;1.62964e-05;10 mA
204.986;0.439423;203.2;1017;1.55029e-05;10 mA
205.386;0.43988;203.6;1019;1.58386e-05;10 mA
205.786;0.440338;204;1021;1.57166e-05;10 mA
206.186;0.440796;204.4;1023;1.5625e-05;10 mA
206.586;0.441254;204.8;1025;1.5686e-05;10 mA
206.986;0.441742;205.2;1027;1.58997e-05;10 mA
207.386;0.4422;205.6;1029;1.59912e-05;10 mA
207.786;0.442627;206;1031;1.56555e-05;10 mA
208.186;0.443085;206.4;1033;1.60522e-05;10 mA
208.586;0.443542;206.8;1035;1.5686e-05;10 mA
208.986;0.444;207.2;1037;1.61743e-05;10 mA
209.386;0.444489;207.6;1039;1.58691e-05;10 mA
209.786;0.444946;208;1041;1.57776e-05;10 mA
210.186;0.445404;208.4;1043;1.58386e-05;10 mA
210.586;0.445862;208.8;1045;1.5686e-05;10 mA
210.986;0.44632;209.2;1047;1.57166e-05;10 mA
211.386;0.446777;209.6;1049;1.58081e-05;10 mA
211.786;0.447235;210;1051;1.58081e-05;10 mA
212.186;0.447693;210.4;1053;1.59912e-05;10 mA
212.586;0.448151;210.8;1055;1.54724e-05;10 mA
212.986;0.448578;211.2;1057;1.59607e-05;10 mA
213.386;0.449036;211.6;1059;1.57776e-05;10 mA
213.786;0.449493;212;1061;1.58997e-05;10 mA
214.186;0.449982;212.4;1063;1.58386e-05;10 mA
214.586;0.450439;212.8;1065;1.57471e-05;10 mA
214.986;0.450897;213.2;1067;1.58386e-05;10 mA
215.386;0.451355;213.6;1069;1.58081e-05;10 mA
215.786;0.451813;214;1071;1.57471e-05;10 mA
216.186;0.452209;214.4;1073;1.58997e-05;10 mA
216.586;0.452667;214.8;1075;1.5625e-05;10 mA
216.986;0.453125;215.2;1077;1.58997e-05;10 mA
217.386;0.453583;215.6;1079;1.58081e-05;10 mA
217.786;0.454071;216;1081;1.61438e-05;10 mA
218.186;0.454559;216.4;1083;1.62354e-05;10 mA
218.586;0.454987;216.8;1085;1.55334e-05;10 mA
218.986;0.455444;217.2;1087;1.55029e-05;10 mA
219.386;0.455872;217.6;1089;1.58386e-05;10 mA
219.786;0.45636;218;1091;1.5686e-05;10 mA
220.186;0.456787;218.4;1093;1.58691e-05;10 mA
220.586;0.457275;218.8;1095;1.59912e-05;10 mA
220.986;0.457733;219.2;1097;1.60828e-05;10 mA
221.386;0.458191;219.6;1099;1.57166e-05;10 mA
221.786;0.458618;220;1101;1.58997e-05;10 mA
222.186;0.459106;220.4;1103;1.57471e-05;10 mA
222.586;0.459564;220.8;1105;1.54724e-05;10 mA
222.986;0.459991;221.2;1107;1.59607e-05;10 mA
223.386;0.46048;221.6;1109;1.56555e-05;10 mA
223.786;0.460907;222;1111;1.60217e-05;10 mA
224.186;0.461334;222.4;1113;1.58081e-05;10 mA
224.586;0.461792;222.8;1115;1.58997e-05;10 mA
224.986;0.46225;223.2;1117;1.60217e-05;10 mA
225.386;0.462738;223.6;1119;1.5625e-05;10 mA
225.786;0.463165;224;1121;1.57776e-05;10 mA
226.186;0.463654;224.4;1123;1.58081e-05;10 mA
226.586;0.464081;224.8;1125;1.54114e-05;10 mA
226.986;0.464539;225.2;1127;1.58691e-05;10 mA
227.386;0.465027;225.6;1129;1.58691e-05;10 mA
227.786;0.465454;226;1131;1.5625e-05;10 mA
228.186;0.465912;226.4;1133;1.57166e-05;10 mA
228.586;0.466339;226.8;1135;1.57471e-05;10 mA
228.986;0.466766;227.2;1137;1.57776e-05;10 mA
229.386;0.467255;227.6;1139;1.57776e-05;10 mA
229.786;0.467743;228;1141;1.57471e-05;10 mA
230.186;0.468201;228.4;1143;1.57166e-05;10 mA
230.586;0.468658;228.8;1145;1.60522e-05;10 mA
230.986;0.469086;229.2;1147;1.57776e-05;10 mA
231.386;0.469543;229.6;1149;1.58081e-05;10 mA
231.786;0.470001;230;1151;1.58691e-05;10 mA
232.186;0.47049;230.4;1153;1.58386e-05;10 mA
232.586;0.470947;230.8;1155;1.58386e-05;10 mA
232.986;0.471375;231.2;1157;1.61743e-05;10 mA
233.386;0.471863;231.6;1159;1.59912e-05;10 mA
233.786;0.472351;232;1161;1.59912e-05;10 mA
234.186;0.472809;232.4;1163;1.59302e-05;10 mA
234.586;0.473297;232.8;1165;1.57166e-05;10 mA
234.986;0.473785;233.2;1167;1.5686e-05;10 mA
235.386;0.474243;233.6;1169;1.59607e-05;10 mA
235.786;0.474731;234;1171;1.60522e-05;10 mA
236.186;0.475159;234.4;1173;1.59912e-05;10 mA
236.586;0.475647;234.8;1175;1.58691e-05;10 mA
236.986;0.476135;235.2;1177;1.57776e-05;10 mA
237.386;0.476593;235.6;1179;1.59912e-05;10 mA
237.786;0.477081;236;1181;1.59302e-05;10 mA
238.186;0.47757;236.4;1183;1.62659e-05;10 mA
238.586;0.478058;236.8;1185;1.58081e-05;10 mA
238.986;0.478577;237.2;1187;1.57776e-05;10 mA
239.386;0.479095;237.6;1189;1.61133e-05;10 mA
239.786;0.479553;238;1191;1.62354e-05;10 mA
240.186;0.480042;238.4;1193;1.57776e-05;10 mA
240.586;0.48053;238.8;1195;1.61743e-05;10 mA
240.986;0.480988;239.2;1197;1.61743e-05;10 mA
241.386;0.481476;239.6;1199;1.57166e-05;10 mA
241.786;0.481964;240;1201;1.61133e-05;10 mA
242.186;0.482422;240.4;1203;1.59607e-05;10 mA
242.586;0.482941;240.8;1205;1.61438e-05;10 mA
242.986;0.483398;241.2;1207;1.61438e-05;10 mA
243.386;0.483887;241.6;1209;1.58691e-05;10 mA
243.786;0.484375;242;1211;1.58691e-05;10 mA
244.186;0.484833;242.4;1213;1.61743e-05;10 mA
244.586;0.485291;242.8;1215;1.58691e-05;10 mA
244.986;0.485748;243.2;1217;1.59912e-05;10 mA
245.386;0.486206;243.6;1219;1.61743e-05;10 mA
245.786;0.486664;244;1221;1.58997e-05;10 mA
246.186;0.487152;244.4;1223;1.58081e-05;10 mA
246.586;0.48764;244.8;1225;1.58691e-05;10 mA
246.986;0.488129;245.2;1227;1.58691e-05;10 mA
247.386;0.488647;245.6;1229;1.5686e-05;10 mA
247.786;0.489105;246;1231;1.62048e-05;10 mA
248.186;0.489594;246.4;1233;1.57166e-05;10 mA
248.586;0.490051;246.8;1235;1.57471e-05;10 mA
248.986;0.490509;247.2;1237;1.58997e-05;10 mA
249.386;0.490997;247.6;1239;1.63269e-05;10 mA
249.786;0.491455;248;1241;1.58081e-05;10 mA
250.186;0.491943;248.4;1243;1.61133e-05;10 mA
250.586;0.492432;248.8;1245;1.61743e-05;10 mA
250.986;0.492859;249.2;1247;1.59607e-05;10 mA
251.386;0.493347;249.6;1249;1.59302e-05;10 mA
251.786;0.493774;250;1251;1.58691e-05;10 mA
252.186;0.494232;250.4;1253;1.60522e-05;10 mA
252.586;0.49472;250.8;1255;1.61438e-05;10 mA
252.986;0.495209;251.2;1257;1.59912e-05;10 mA
253.386;0.495667;251.6;1259;1.58997e-05;10 mA
253.786;0.496155;252;1261;1.57776e-05;10 mA
254.186;0.496613;252.4;1263;1.61438e-05;10 mA
254.586;0.49707;252.8;1265;1.59302e-05;10 mA
254.986;0.497498;253.2;1267;1.58997e-05;10 mA
255.386;0.497925;253.6;1269;1.62659e-05;10 mA
255.786;0.498383;254;1271;1.62659e-05;10 mA
256.186;0.49884;254.4;1273;1.61133e-05;10 mA
256.586;0.499298;254.8;1275;1.62659e-05;10 mA
256.986;0.499756;255.2;1277;1.62964e-05;10 mA
257.386;0.500183;255.6;1279;1.56555e-05;10 mA
257.786;0.500488;256;1281;1.57166e-05;10 mA
258.186;0.501099;256.4;1283;1.62048e-05;10 mA
258.586;0.501404;256.8;1285;1.57776e-05;10 mA
258.986;0.502014;257.2;1287;1.57776e-05;10 mA
259.386;0.502319;257.6;1289;1.58386e-05;10 mA
259.786;0.50293;258;1291;1.57776e-05;10 mA
260.186;0.503235;258.4;1293;1.5625e-05;10 mA
260.586;0.503845;258.8;1295;1.60217e-05;10 mA
260.986;0.50415;259.2;1297;1.59302e-05;10 mA
261.386;0.504761;259.6;1299;1.57776e-05;10 mA
261.786;0.505371;260;1301;1.60828e-05;10 mA
262.186;0.505676;260.4;1303;1.58997e-05;10 mA
262.586;0.506287;260.8;1305;1.62048e-05;10 mA
262.986;0.506592;261.2;1307;1.56555e-05;10 mA
263.386;0.507202;261.6;1309;1.60828e-05;10 mA
263.786;0.507507;262;1311;1.59912e-05;10 mA
264.186;0.508118;262.4;1313;1.57166e-05;10 mA
264.586;0.508728;262.8;1315;1.62048e-05;10 mA
264.986;0.509033;263.2;1317;1.63879e-05;10 mA
265.386;0.509644;263.6;1319;1.60828e-05;10 mA
265.786;0.509949;264;1321;1.63574e-05;10 mA
266.186;0.510559;264.4;1323;1.58081e-05;10 mA
266.586;0.510864;264.8;1325;1.63574e-05;10 mA
266.986;0.511475;265.2;1327;1.61438e-05;10 mA
267.386;0.512085;265.6;1329;1.60217e-05;10 mA
267.786;0.51239;266;1331;1.64185e-05;10 mA
268.186;0.513;266.4;1333;1.59912e-05;10 mA
268.586;0.513306;266.8;1335;1.62048e-05;10 mA
268.986;0.513611;267.2;1337;1.63879e-05;10 mA
269.386;0.514221;267.6;1339;1.60828e-05;10 mA
269.786;0.514526;268;1341;1.58691e-05;10 mA
270.186;0.515137;268.4;1343;1.58386e-05;10 mA
270.586;0.515442;268.8;1345;1.59302e-05;10 mA
270.986;0.516052;269.2;1347;1.63879e-05;10 mA
271.386;0.516357;269.6;1349;1.60828e-05;10 mA
271.786;0.516968;270;1351;1.58997e-05;10 mA
272.186;0.517273;270.4;1353;1.61438e-05;10 mA
272.586;0.517883;270.8;1355;1.60217e-05;10 mA
272.986;0.518494;271.2;1357;1.58997e-05;10 mA
273.386;0.518799;271.6;1359;1.59912e-05;10 mA
273.786;0.519409;272;1361;1.59607e-05;10 mA
274.186;0.519714;272.4;1363;1.61743e-05;10 mA
274.586;0.520325;272.8;1365;1.58386e-05;10 mA
274.986;0.52063;273.2;1367;1.58386e-05;10 mA
275.386;0.52124;273.6;1369;1.57776e-05;10 mA
275.786;0.521851;274;1371;1.61438e-05;10 mA
276.186;0.522156;274.4;1373;1.59912e-05;10 mA
276.586;0.522766;274.8;1375;1.60828e-05;10 mA
276.986;0.523071;275.2;1377;1.56555e-05;10 mA
277.386;0.523682;275.6;1379;1.61743e-05;10 mA
277.786;0.523987;276;1381;1.57166e-05;10 mA
278.186;0.524597;276.4;1383;1.61438e-05;10 mA
278.586;0.524902;276.8;1385;1.64795e-05;10 mA
278.986;0.525513;277.2;1387;1.61133e-05;10 mA
279.386;0.526123;277.6;1389;1.63574e-05;10 mA
279.786;0.526428;278;1391;1.61743e-05;10 mA
280.186;0.527039;278.4;1393;1.61743e-05;10 mA
280.586;0.527344;278.8;1395;1.57471e-05;10 mA
280.986;0.527954;279.2;1397;1.59607e-05;10 mA
281.386;0.528259;279.6;1399;1.60217e-05;10 mA
281.786;0.52887;280;1401;1.60522e-05;10 mA
282.186;0.529175;280.4;1403;1.62354e-05;10 mA
282.586;0.529785;280.8;1405;1.61743e-05;10 mA
282.986;0.53009;281.2;1407;1.5686e-05;10 mA
283.386;0.530701;281.6;1409;1.61133e-05;10 mA
283.786;0.531311;282;1411;1.60217e-05;10 mA
284.186;0.531616;282.4;1413;1.61743e-05;10 mA
284.586;0.532227;282.8;1415;1.58386e-05;10 mA
284.986;0.532532;283.2;1417;1.58691e-05;10 mA
285.386;0.533142;283.6;1419;1.61133e-05;10 mA
285.786;0.533447;284;1421;1.60217e-05;10 mA
286.186;0.534058;284.4;1423;1.60217e-05;10 mA
286.586;0.534363;284.8;1425;1.59912e-05;10 mA
286.986;0.534973;285.2;1427;1.57166e-05;10 mA
287.386;0.535278;285.6;1429;1.59302e-05;10 mA
287.786;0.535889;286;1431;1.58386e-05;10 mA
288.186;0.536194;286.4;1433;1.62354e-05;10 mA
288.586;0.536804;286.8;1435;1.64795e-05;10 mA
288.986;0.537109;287.2;1437;1.55334e-05;10 mA
289.386;0.53772;287.6;1439;1.60522e-05;10 mA
289.786;0.538025;288;1441;1.61133e-05;10 mA
290.186;0.538635;288.4;1443;1.60522e-05;10 mA
290.586;0.53894;288.8;1445;1.57471e-05;10 mA
290.986;0.539551;289.2;1447;1.58691e-05;10 mA
291.386;0.539856;289.6;1449;1.57776e-05;10 mA
291.786;0.540466;290;1451;1.61743e-05;10 mA
292.186;0.540771;290.4;1453;1.58081e-05;10 mA
292.586;0.541382;290.8;1455;1.60828e-05;10 mA
292.986;0.541687;291.2;1457;1.59607e-05;10 mA
293.386;0.542297;291.6;1459;1.58081e-05;10 mA
293.786;0.542603;292;1461;1.63269e-05;10 mA
294.186;0.543213;292.4;1463;1.60217e-05;10 mA
294.586;0.543518;292.8;1465;1.60217e-05;10 mA
294.986;0.544128;293.2;1467;1.60522e-05;10 mA
295.386;0.544739;293.6;1469;1.59302e-05;10 mA
295.786;0.545044;294;1471;1.58386e-05;10 mA
296.186;0.545654;294.4;1473;1.59302e-05;10 mA
296.586;0.546265;294.8;1475;1.60522e-05;10 mA
296.986;0.54657;295.2;1477;1.57166e-05;10 mA
297.386;0.54718;295.6;1479;1.59607e-05;10 mA
297.786;0.547485;296;1481;1.63269e-05;10 mA
298.186;0.548096;296.4;1483;1.57166e-05;10 mA
298.586;0.548401;296.8;1485;1.59302e-05;10 mA
298.986;0.549011;297.2;1487;1.60828e-05;10 mA
299.386;0.549316;297.6;1489;1.60828e-05;10 mA
299.786;0.549927;298;1491;1.62659e-05;10 mA
300.186;0.550232;298.4;1493;1.60217e-05;10 mA
300.586;0.550842;298.8;1495;1.58081e-05;10 mA
300.986;0.551147;299.2;1497;1.61743e-05;10 mA
301.386;0.551758;299.6;1499;1.58386e-05;10 mA
301.786;0.552063;300;1501;1.60522e-05;10 mA
302.186;0.552673;300.4;1503;1.57471e-05;10 mA
302.586;0.553284;300.8;1505;1.57166e-05;10 mA
302.986;0.553589;301.2;1507;1.59302e-05;10 mA
303.386;0.553894;301.6;1509;1.57776e-05;10 mA
303.786;0.554504;302;1511;1.59302e-05;10 mA
304.186;0.555115;302.4;1513;1.57776e-05;10 mA
304.586;0.55542;302.8;1515;1.62048e-05;10 mA
304.986;0.55603;303.2;1517;1.59912e-05;10 mA
305.386;0.556335;303.6;1519;1.59912e-05;10 mA
305.786;0.556946;304;1521;1.63574e-05;10 mA
306.186;0.557251;304.4;1523;1.60217e-05;10 mA
306.586;0.557861;304.8;1525;1.60217e-05;10 mA
306.986;0.558472;305.2;1527;1.59607e-05;10 mA
307.386;0.558777;305.6;1529;1.58691e-05;10 mA
307.786;0.559387;306;1531;1.59302e-05;10 mA
308.186;0.559692;306.4;1533;1.59912e-05;10 mA
308.586;0.560303;306.8;1535;1.61743e-05;10 mA
308.986;0.560608;307.2;1537;1.59302e-05;10 mA
309.386;0.561218;307.6;1539;1.58081e-05;10 mA
309.786;0.561829;308;1541;1.55334e-05;10 mA
310.186;0.562134;308.4;1543;1.59912e-05;10 mA
310.586;0.562744;308.8;1545;1.60828e-05;10 mA
310.986;0.563049;309.2;1547;1.61133e-05;10 mA
311.386;0.56366;309.6;1549;1.58386e-05;10 mA
311.786;0.563965;310;1551;1.61743e-05;10 mA
312.186;0.564575;310.4;1553;1.59607e-05;10 mA
312.586;0.56488;310.8;1555;1.61133e-05;10 mA
312.986;0.565491;311.2;1557;1.58386e-05;10 mA
313.386;0.566101;311.6;1559;1.57166e-05;10 mA
313.786;0.566406;312;1561;1.60828e-05;10 mA
314.186;0.567017;312.4;1563;1.61438e-05;10 mA
314.586;0.567322;312.8;1565;1.64185e-05;10 mA
314.986;0.567932;313.2;1567;1.61133e-05;10 mA
315.386;0.568237;313.6;1569;1.59302e-05;10 mA
315.786;0.568848;314;1571;1.60217e-05;10 mA
316.186;0.569153;314.4;1573;1.60217e-05;10 mA
316.586;0.569763;314.8;1575;1.59607e-05;10 mA
316.986;0.570374;315.2;1577;1.58386e-05;10 mA
317.386;0.570679;315.6;1579;1.60828e-05;10 mA
317.786;0.571289;316;1581;1.59607e-05;10 mA
318.186;0.571594;316.4;1583;1.58386e-05;10 mA
318.586;0.572205;316.8;1585;1.62964e-05;10 mA
318.986;0.57251;317.2;1587;1.59302e-05;10 mA
319.386;0.572815;317.6;1589;1.59607e-05;10 mA
319.786;0.573425;318;1591;1.63574e-05;10 mA
320.186;0.57373;318.4;1593;1.58691e-05;10 mA
320.586;0.574341;318.8;1595;1.58691e-05;10 mA
320.986;0.574646;319.2;1597;1.62354e-05;10 mA
321.386;0.575256;319.6;1599;1.60217e-05;10 mA
321.786;0.575562;320;1601;1.59607e-05;10 mA
322.186;0.576172;320.4;1603;1.61133e-05;10 mA
322.586;0.576477;320.8;1605;1.57471e-05;10 mA
322.986;0.577087;321.2;1607;1.61438e-05;10 mA
323.386;0.577393;321.6;1609;1.60217e-05;10 mA
323.786;0.578003;322;1611;1.58081e-05;10 mA
324.186;0.578308;322.4;1613;1.59912e-05;10 mA
324.586;0.578918;322.8;1615;1.58997e-05;10 mA
324.986;0.579224;323.2;1617;1.59912e-05;10 mA
325.386;0.579834;323.6;1619;1.58997e-05;10 mA
325.786;0.580444;324;1621;1.59302e-05;10 mA
326.186;0.58075;324.4;1623;1.59302e-05;10 mA
326.586;0.58136;324.8;1625;1.63879e-05;10 mA
326.986;0.581665;325.2;1627;1.60217e-05;10 mA
327.386;0.582275;325.6;1629;1.59302e-05;10 mA
327.786;0.582886;326;1631;1.59912e-05;10 mA
328.186;0.583191;326.4;1633;1.60828e-05;10 mA
328.586;0.583801;326.8;1635;1.59912e-05;10 mA
328.986;0.584106;327.2;1637;1.59302e-05;10 mA
329.386;0.584717;327.6;1639;1.63269e-05;10 mA
329.786;0.585022;328;1641;1.60828e-05;10 mA
330.186;0.585632;328.4;1643;1.5686e-05;10 mA
330.586;0.586243;328.8;1645;1.61438e-05;10 mA
330.986;0.586548;329.2;1647;1.59302e-05;10 mA
331.386;0.587158;329.6;1649;1.61743e-05;10 mA
331.786;0.587463;330;1651;1.59912e-05;10 mA
332.186;0.588074;330.4;1653;1.56555e-05;10 mA
332.586;0.588379;330.8;1655;1.60217e-05;10 mA
332.986;0.588989;331.2;1657;1.59607e-05;10 mA
333.386;0.589294;331.6;1659;1.60522e-05;10 mA
333.786;0.589905;332;1661;1.59607e-05;10 mA
334.186;0.59021;332.4;1663;1.61133e-05;10 mA
334.586;0.59082;332.8;1665;1.62048e-05;10 mA
334.986;0.591125;333.2;1667;1.63574e-05;10 mA
335.386;0.591736;333.6;1669;1.60217e-05;10 mA
335.786;0.592041;334;1671;1.58997e-05;10 mA
336.186;0.592651;334.4;1673;1.58081e-05;10 mA
336.586;0.593262;334.8;1675;1.60522e-05;10 mA
336.986;0.593567;335.2;1677;1.59302e-05;10 mA
337.386;0.594177;335.6;1679;1.58081e-05;10 mA
337.786;0.594482;336;1681;1.60522e-05;10 mA
338.186;0.595093;336.4;1683;1.58081e-05;10 mA
338.586;0.595398;336.8;1685;1.60828e-05;10 mA
338.986;0.596008;337.2;1687;1.60217e-05;10 mA
339.386;0.596313;337.6;1689;1.59912e-05;10 mA
339.786;0.596924;338;1691;1.57776e-05;10 mA
340.186;0.597229;338.4;1693;1.60828e-05;10 mA
340.586;0.597839;338.8;1695;1.59302e-05;10 mA
340.986;0.598145;339.2;1697;1.60522e-05;10 mA
341.386;0.598755;339.6;1699;1.60217e-05;10 mA
341.786;0.59906;340;1701;1.62354e-05;10 mA
342.186;0.59967;340.4;1703;1.62354e-05;10 mA
342.586;0.599976;340.8;1705;1.61438e-05;10 mA
342.986;0.600586;341.2;1707;1.60217e-05;10 mA
343.386;0.600891;341.6;1709;1.62964e-05;10 mA
343.786;0.601501;342;1711;1.5686e-05;10 mA
344.186;0.602112;342.4;1713;1.60217e-05;10 mA
344.586;0.602417;342.8;1715;1.59607e-05;10 mA
344.986;0.602722;343.2;1717;1.59912e-05;10 mA
345.386;0.603333;343.6;1719;1.60828e-05;10 mA
345.786;0.603638;344;1721;1.61133e-05;10 mA
346.186;0.604248;344.4;1723;1.62354e-05;10 mA
346.586;0.604858;344.8;1725;1.60217e-05;10 mA
346.986;0.605164;345.2;1727;1.57471e-05;10 mA
347.386;0.605774;345.6;1729;1.60217e-05;10 mA
347.786;0.606079;346;1731;1.59302e-05;10 mA
348.186;0.606689;346.4;1733;1.58386e-05;10 mA
348.586;0.606995;346.8;1735;1.62964e-05;10 mA
348.986;0.6073;347.2;1737;1.58691e-05;10 mA
349.386;0.60791;347.6;1739;1.61743e-05;10 mA
349.786;0.608215;348;1741;1.60522e-05;10 mA
350.186;0.608826;348.4;1743;1.59912e-05;10 mA
350.586;0.609131;348.8;1745;1.61133e-05;10 mA
350.986;0.609741;349.2;1747;1.58997e-05;10 mA
351.386;0.610046;349.6;1749;1.59912e-05;10 mA
351.786;0.610352;350;1751;1.60828e-05;10 mA
352.186;0.610962;350.4;1753;1.58386e-05;10 mA
352.586;0.611267;350.8;1755;1.58691e-05;10 mA
352.986;0.611877;351.2;1757;1.61743e-05;10 mA
353.386;0.612183;351.6;1759;1.62354e-05;10 mA
353.786;0.612793;352;1761;1.59912e-05;10 mA
354.186;0.613098;352.4;1763;1.59912e-05;10 mA
354.586;0.613708;352.8;1765;1.60217e-05;10 mA
354.986;0.614014;353.2;1767;1.56555e-05;10 mA
355.386;0.614319;353.6;1769;1.59912e-05;10 mA
355.786;0.614929;354;1771;1.61438e-05;10 mA
356.186;0.615234;354.4;1773;1.60217e-05;10 mA
356.586;0.615845;354.8;1775;1.62964e-05;10 mA
356.986;0.61615;355.2;1777;1.59607e-05;10 mA
357.386;0.61676;355.6;1779;1.60522e-05;10 mA
357.786;0.617065;356;1781;1.57776e-05;10 mA
358.186;0.617371;356.4;1783;1.5564e-05;10 mA
358.586;0.617981;356.8;1785;1.61438e-05;10 mA
358.986;0.618286;357.2;1787;1.59302e-05;10 mA
359.386;0.618896;357.6;1789;1.60217e-05;10 mA
359.786;0.619202;358;1791;1.61133e-05;10 mA
360.186;0.619812;358.4;1793;1.63269e-05;10 mA
360.586;0.620117;358.8;1795;1.61133e-05;10 mA
360.986;0.620728;359.2;1797;1.58081e-05;10 mA
361.386;0.621033;359.6;1799;1.57166e-05;10 mA
361.786;0.621643;360;1801;1.59912e-05;10 mA
362.186;0.621948;360.4;1803;1.61743e-05;10 mA
362.586;0.622559;360.8;1805;1.61743e-05;10 mA
362.986;0.623169;361.2;1807;1.63269e-05;10 mA
363.386;0.623474;361.6;1809;1.61743e-05;10 mA
363.786;0.624084;362;1811;1.56555e-05;10 mA
364.186;0.62439;362.4;1813;1.60217e-05;10 mA
364.586;0.625;362.8;1815;1.58081e-05;10 mA
364.986;0.625305;363.2;1817;1.61743e-05;10 mA
365.386;0.62561;363.6;1819;1.59607e-05;10 mA
365.786;0.626221;364;1821;1.58691e-05;10 mA
366.186;0.626526;364.4;1823;1.60217e-05;10 mA
366.586;0.626831;364.8;1825;1.58997e-05;10 mA
366.986;0.627441;365.2;1827;1.58997e-05;10 mA
367.386;0.627747;365.6;1829;1.62354e-05;10 mA
367.786;0.628052;366;1831;1.58691e-05;10 mA
368.186;0.628662;366.4;1833;1.60828e-05;10 mA
368.586;0.628967;366.8;1835;1.62659e-05;10 mA
368.986;0.629578;367.2;1837;1.62659e-05;10 mA
369.386;0.629883;367.6;1839;1.57471e-05;10 mA
369.786;0.630493;368;1841;1.57471e-05;10 mA
370.186;0.630798;368.4;1843;1.62048e-05;10 mA
370.586;0.631104;368.8;1845;1.59302e-05;10 mA
370.986;0.631714;369.2;1847;1.61438e-05;10 mA
371.386;0.632019;369.6;1849;1.60217e-05;10 mA
371.786;0.632629;370;1851;1.61743e-05;10 mA
372.186;0.632935;370.4;1853;1.62659e-05;10 mA
372.586;0.633545;370.8;1855;1.61438e-05;10 mA
372.986;0.63385;371.2;1857;1.62048e-05;10 mA
373.386;0.63446;371.6;1859;1.58691e-05;10 mA
373.786;0.634766;372;1861;1.5564e-05;10 mA
374.186;0.635376;372.4;1863;1.59302e-05;10 mA
374.586;0.635681;372.8;1865;1.58081e-05;10 mA
374.986;0.636292;373.2;1867;1.61438e-05;10 mA
375.386;0.636597;373.6;1869;1.57471e-05;10 mA
375.786;0.637207;374;1871;1.59607e-05;10 mA
376.186;0.637512;374.4;1873;1.62354e-05;10 mA
376.586;0.637817;374.8;1875;1.62659e-05;10 mA
376.986;0.638428;375.2;1877;1.59912e-05;10 mA
377.386;0.638733;375.6;1879;1.62659e-05;10 mA
377.786;0.639343;376;1881;1.57776e-05;10 mA
378.186;0.639648;376.4;1883;1.63269e-05;10 mA
378.586;0.639954;376.8;1885;1.61743e-05;10 mA
378.986;0.640564;377.2;1887;1.61743e-05;10 mA
379.386;0.640869;377.6;1889;1.61743e-05;10 mA
379.786;0.641479;378;1891;1.62659e-05;10 mA
380.186;0.641785;378.4;1893;1.59607e-05;10 mA
380.586;0.64209;378.8;1895;1.62659e-05;10 mA
380.986;0.6427;379.2;1897;1.58691e-05;10 mA
381.386;0.643005;379.6;1899;1.57471e-05;10 mA
381.786;0.643616;380;1901;1.62659e-05;10 mA
382.186;0.643921;380.4;1903;1.61438e-05;10 mA
382.586;0.644226;380.8;1905;1.61743e-05;10 mA
382.986;0.644836;381.2;1907;1.651e-05;10 mA
383.386;0.645142;381.6;1909;1.60828e-05;10 mA
383.786;0.645752;382;1911;1.62659e-05;10 mA
384.186;0.646057;382.4;1913;1.60828e-05;10 mA
384.586;0.646667;382.8;1915;1.61743e-05;10 mA
384.986;0.646973;383.2;1917;1.63269e-05;10 mA
385.386;0.647583;383.6;1919;1.58997e-05;10 mA
385.786;0.647888;384;1921;1.62048e-05;10 mA
386.186;0.648193;384.4;1923;1.58997e-05;10 mA
386.586;0.648804;384.8;1925;1.61743e-05;10 mA
386.986;0.649109;385.2;1927;1.6449e-05;10 mA
387.386;0.649719;385.6;1929;1.59607e-05;10 mA
387.786;0.650024;386;1931;1.60522e-05;10 mA
388.186;0.650635;386.4;1933;1.58997e-05;10 mA
388.586;0.65094;386.8;1935;1.58997e-05;10 mA
388.986;0.651245;387.2;1937;1.60828e-05;10 mA
389.386;0.651855;387.6;1939;1.60522e-05;10 mA
389.786;0.652161;388;1941;1.60522e-05;10 mA
390.186;0.652771;388.4;1943;1.60217e-05;10 mA
390.586;0.653076;388.8;1945;1.61743e-05;10 mA
390.986;0.653687;389.2;1947;1.56555e-05;10 mA
391.386;0.653992;389.6;1949;1.59302e-05;10 mA
391.786;0.654602;390;1951;1.59912e-05;10 mA
392.186;0.654907;390.4;1953;1.57471e-05;10 mA
392.586;0.655518;390.8;1955;1.62659e-05;10 mA
392.986;0.655823;391.2;1957;1.60217e-05;10 mA
393.386;0.656433;391.6;1959;1.59912e-05;10 mA
393.786;0.656738;392;1961;1.58386e-05;10 mA
394.186;0.657043;392.4;1963;1.59607e-05;10 mA
394.586;0.657654;392.8;1965;1.60522e-05;10 mA
394.986;0.657959;393.2;1967;1.64185e-05;10 mA
395.386;0.658569;393.6;1969;1.60828e-05;10 mA
395.786;0.658875;394;1971;1.60522e-05;10 mA
396.186;0.659485;394.4;1973;1.57776e-05;10 mA
396.586;0.65979;394.8;1975;1.60522e-05;10 mA
396.986;0.660095;395.2;1977;1.59302e-05;10 mA
397.386;0.660706;395.6;1979;1.58997e-05;10 mA
397.786;0.661011;396;1981;1.58386e-05;10 mA
398.186;0.661621;396.4;1983;1.60522e-05;10 mA
398.586;0.661926;396.8;1985;1.60522e-05;10 mA
398.986;0.662537;397.2;1987;1.62964e-05;10 mA
399.386;0.662842;397.6;1989;1.57776e-05;10 mA
399.786;0.663452;398;1991;1.61133e-05;10 mA
400.186;0.663757;398.4;1993;1.61133e-05;10 mA
400.586;0.664368;398.8;1995;1.57776e-05;10 mA
400.986;0.664673;399.2;1997;1.60217e-05;10 mA
401.386;0.664978;399.6;1999;1.58997e-05;10 mA
401.586;0.665283;399.8;2000;1.58386e-05;10 mA