File: Mxene1-1Ag-CARGA2.txt
Time (s);WE(1).Potential (V);Corrected time (s);Index;WE(1).Current (A);Current range;Cutoffs
1024.4;0.30719;0;1;1.53503e-05;10 mA;WE(1).Potential > 0,85 V , WE(1).Potential > 0,85 V , WE(1).Potential > 0,85 V , WE(1).Potential > 0,85 V
1024.6;0.308136;0.2;2;1.50452e-05;10 mA;
1025;0.310028;0.6;4;1.52893e-05;10 mA;
1025.4;0.311676;1;6;1.53503e-05;10 mA;
1025.8;0.313202;1.4;8;1.54724e-05;10 mA;
1026.2;0.314636;1.8;10;1.51672e-05;10 mA;
1026.6;0.315979;2.2;12;1.5625e-05;10 mA;
1027;0.317261;2.6;14;1.51978e-05;10 mA;
1027.4;0.318512;3;16;1.53503e-05;10 mA;
1027.8;0.319702;3.4;18;1.55945e-05;10 mA;
1028.2;0.320862;3.8;20;1.5686e-05;10 mA;
1028.6;0.321991;4.2;22;1.49841e-05;10 mA;
1029;0.32312;4.6;24;1.52283e-05;10 mA;
1029.4;0.324188;5;26;1.55029e-05;10 mA;
1029.8;0.325287;5.4;28;1.54114e-05;10 mA;
1030.2;0.326324;5.8;30;1.56555e-05;10 mA;
1030.6;0.327362;6.2;32;1.54419e-05;10 mA;
1031;0.328339;6.6;34;1.54114e-05;10 mA;
1031.4;0.329346;7;36;1.52283e-05;10 mA;
1031.8;0.330353;7.4;38;1.55945e-05;10 mA;
1032.2;0.331299;7.8;40;1.53809e-05;10 mA;
1032.6;0.332275;8.2;42;1.53809e-05;10 mA;
1033;0.333221;8.6;44;1.55029e-05;10 mA;
1033.4;0.334167;9;46;1.53198e-05;10 mA;
1033.8;0.335114;9.4;48;1.57776e-05;10 mA;
1034.2;0.336029;9.8;50;1.56555e-05;10 mA;
1034.6;0.336945;10.2;52;1.5564e-05;10 mA;
1035;0.33786;10.6;54;1.54114e-05;10 mA;
1035.4;0.338806;11;56;1.55029e-05;10 mA;
1035.8;0.339691;11.4;58;1.52588e-05;10 mA;
1036.2;0.340607;11.8;60;1.55945e-05;10 mA;
1036.6;0.341492;12.2;62;1.53809e-05;10 mA;
1037;0.342377;12.6;64;1.55334e-05;10 mA;
1037.4;0.343292;13;66;1.5564e-05;10 mA;
1037.8;0.344177;13.4;68;1.5564e-05;10 mA;
1038.2;0.345062;13.8;70;1.53198e-05;10 mA;
1038.6;0.345886;14.2;72;1.58081e-05;10 mA;
1039;0.346741;14.6;74;1.5564e-05;10 mA;
1039.4;0.347565;15;76;1.5564e-05;10 mA;
1039.8;0.348419;15.4;78;1.54724e-05;10 mA;
1040.2;0.349213;15.8;80;1.57166e-05;10 mA;
1040.6;0.350037;16.2;82;1.5625e-05;10 mA;
1041;0.350861;16.6;84;1.54724e-05;10 mA;
1041.4;0.351685;17;86;1.5564e-05;10 mA;
1041.8;0.352478;17.4;88;1.54724e-05;10 mA;
1042.2;0.353333;17.8;90;1.55029e-05;10 mA;
1042.6;0.354156;18.2;92;1.5686e-05;10 mA;
1043;0.35495;18.6;94;1.5564e-05;10 mA;
1043.4;0.355774;19;96;1.5564e-05;10 mA;
1043.8;0.356598;19.4;98;1.54724e-05;10 mA;
1044.2;0.357422;19.8;100;1.53503e-05;10 mA;
1044.6;0.358246;20.2;102;1.50452e-05;10 mA;
1045;0.359039;20.6;104;1.55334e-05;10 mA;
1045.4;0.359833;21;106;1.55029e-05;10 mA;
1045.8;0.360626;21.4;108;1.56555e-05;10 mA;
1046.2;0.36142;21.8;110;1.51367e-05;10 mA;
1046.6;0.362213;22.2;112;1.53503e-05;10 mA;
1047;0.363007;22.6;114;1.5625e-05;10 mA;
1047.4;0.363831;23;116;1.53198e-05;10 mA;
1047.8;0.364624;23.4;118;1.53198e-05;10 mA;
1048.2;0.365417;23.8;120;1.57776e-05;10 mA;
1048.6;0.366211;24.2;122;1.55334e-05;10 mA;
1049;0.367035;24.6;124;1.5625e-05;10 mA;
1049.4;0.367828;25;126;1.57471e-05;10 mA;
1049.8;0.368652;25.4;128;1.54114e-05;10 mA;
1050.2;0.369446;25.8;130;1.54419e-05;10 mA;
1050.6;0.37027;26.2;132;1.53503e-05;10 mA;
1051;0.371063;26.6;134;1.53809e-05;10 mA;
1051.4;0.371857;27;136;1.54724e-05;10 mA;
1051.8;0.37265;27.4;138;1.57166e-05;10 mA;
1052.2;0.373474;27.8;140;1.54724e-05;10 mA;
1052.6;0.374268;28.2;142;1.55029e-05;10 mA;
1053;0.375061;28.6;144;1.54419e-05;10 mA;
1053.4;0.375824;29;146;1.55334e-05;10 mA;
1053.8;0.376617;29.4;148;1.52893e-05;10 mA;
1054.2;0.377411;29.8;150;1.55334e-05;10 mA;
1054.6;0.378235;30.2;152;1.55945e-05;10 mA;
1055;0.379028;30.6;154;1.54419e-05;10 mA;
1055.4;0.379791;31;156;1.5686e-05;10 mA;
1055.8;0.380554;31.4;158;1.5564e-05;10 mA;
1056.2;0.381317;31.8;160;1.55334e-05;10 mA;
1056.6;0.38208;32.2;162;1.54114e-05;10 mA;
1057;0.382874;32.6;164;1.55334e-05;10 mA;
1057.4;0.383667;33;166;1.53809e-05;10 mA;
1057.8;0.38446;33.4;168;1.57166e-05;10 mA;
1058.2;0.385223;33.8;170;1.53198e-05;10 mA;
1058.6;0.385986;34.2;172;1.56555e-05;10 mA;
1059;0.38681;34.6;174;1.53809e-05;10 mA;
1059.4;0.387604;35;176;1.51672e-05;10 mA;
1059.8;0.388367;35.4;178;1.59302e-05;10 mA;
1060.2;0.38916;35.8;180;1.55334e-05;10 mA;
1060.6;0.389984;36.2;182;1.58997e-05;10 mA;
1061;0.390747;36.6;184;1.53198e-05;10 mA;
1061.4;0.39151;37;186;1.56555e-05;10 mA;
1061.8;0.392303;37.4;188;1.51062e-05;10 mA;
1062.2;0.393066;37.8;190;1.5625e-05;10 mA;
1062.6;0.393829;38.2;192;1.5564e-05;10 mA;
1063;0.394623;38.6;194;1.58081e-05;10 mA;
1063.4;0.395416;39;196;1.52893e-05;10 mA;
1063.8;0.39621;39.4;198;1.54419e-05;10 mA;
1064.2;0.396973;39.8;200;1.53198e-05;10 mA;
1064.6;0.397736;40.2;202;1.57166e-05;10 mA;
1065;0.398529;40.6;204;1.57471e-05;10 mA;
1065.4;0.399292;41;206;1.58081e-05;10 mA;
1065.8;0.400085;41.4;208;1.5686e-05;10 mA;
1066.2;0.400909;41.8;210;1.54419e-05;10 mA;
1066.6;0.401672;42.2;212;1.54114e-05;10 mA;
1067;0.402466;42.6;214;1.55945e-05;10 mA;
1067.4;0.403259;43;216;1.5625e-05;10 mA;
1067.8;0.404053;43.4;218;1.51672e-05;10 mA;
1068.2;0.404846;43.8;220;1.55334e-05;10 mA;
1068.6;0.40567;44.2;222;1.56555e-05;10 mA;
1069;0.406464;44.6;224;1.54114e-05;10 mA;
1069.4;0.407257;45;226;1.52283e-05;10 mA;
1069.8;0.408051;45.4;228;1.52283e-05;10 mA;
1070.2;0.408813;45.8;230;1.5564e-05;10 mA;
1070.6;0.409637;46.2;232;1.55029e-05;10 mA;
1071;0.410431;46.6;234;1.53503e-05;10 mA;
1071.4;0.411224;47;236;1.5564e-05;10 mA;
1071.8;0.412018;47.4;238;1.56555e-05;10 mA;
1072.2;0.412811;47.8;240;1.55029e-05;10 mA;
1072.6;0.413605;48.2;242;1.57471e-05;10 mA;
1073;0.414398;48.6;244;1.54114e-05;10 mA;
1073.4;0.415192;49;246;1.55945e-05;10 mA;
1073.8;0.416016;49.4;248;1.52893e-05;10 mA;
1074.2;0.416809;49.8;250;1.5564e-05;10 mA;
1074.6;0.417603;50.2;252;1.55334e-05;10 mA;
1075;0.418396;50.6;254;1.55334e-05;10 mA;
1075.4;0.41922;51;256;1.52283e-05;10 mA;
1075.8;0.420044;51.4;258;1.5625e-05;10 mA;
1076.2;0.420868;51.8;260;1.5564e-05;10 mA;
1076.6;0.421661;52.2;262;1.55029e-05;10 mA;
1077;0.422485;52.6;264;1.54419e-05;10 mA;
1077.4;0.423309;53;266;1.54114e-05;10 mA;
1077.8;0.424103;53.4;268;1.58386e-05;10 mA;
1078.2;0.424957;53.8;270;1.57471e-05;10 mA;
1078.6;0.425751;54.2;272;1.55945e-05;10 mA;
1079;0.426636;54.6;274;1.52588e-05;10 mA;
1079.4;0.42746;55;276;1.55029e-05;10 mA;
1079.8;0.428284;55.4;278;1.5625e-05;10 mA;
1080.2;0.429108;55.8;280;1.55334e-05;10 mA;
1080.6;0.429962;56.2;282;1.53809e-05;10 mA;
1081;0.430817;56.6;284;1.53809e-05;10 mA;
1081.4;0.431671;57;286;1.54114e-05;10 mA;
1081.8;0.432526;57.4;288;1.53198e-05;10 mA;
1082.2;0.43335;57.8;290;1.55029e-05;10 mA;
1082.6;0.434174;58.2;292;1.55945e-05;10 mA;
1083;0.435028;58.6;294;1.56555e-05;10 mA;
1083.4;0.435852;59;296;1.52893e-05;10 mA;
1083.8;0.436737;59.4;298;1.55334e-05;10 mA;
1084.2;0.437561;59.8;300;1.5625e-05;10 mA;
1084.6;0.438446;60.2;302;1.54724e-05;10 mA;
1085;0.439301;60.6;304;1.57166e-05;10 mA;
1085.4;0.440155;61;306;1.59912e-05;10 mA;
1085.8;0.44101;61.4;308;1.5686e-05;10 mA;
1086.2;0.441895;61.8;310;1.55945e-05;10 mA;
1086.6;0.44278;62.2;312;1.55029e-05;10 mA;
1087;0.443634;62.6;314;1.55945e-05;10 mA;
1087.4;0.444519;63;316;1.55945e-05;10 mA;
1087.8;0.445404;63.4;318;1.5686e-05;10 mA;
1088.2;0.446289;63.8;320;1.53198e-05;10 mA;
1088.6;0.447144;64.2;322;1.5564e-05;10 mA;
1089;0.447998;64.6;324;1.55334e-05;10 mA;
1089.4;0.448883;65;326;1.55334e-05;10 mA;
1089.8;0.449768;65.4;328;1.5686e-05;10 mA;
1090.2;0.450623;65.8;330;1.53809e-05;10 mA;
1090.6;0.451508;66.2;332;1.56555e-05;10 mA;
1091;0.452393;66.6;334;1.55334e-05;10 mA;
1091.4;0.453217;67;336;1.55334e-05;10 mA;
1091.8;0.454102;67.4;338;1.57166e-05;10 mA;
1092.2;0.454956;67.8;340;1.5625e-05;10 mA;
1092.6;0.455872;68.2;342;1.51978e-05;10 mA;
1093;0.456757;68.6;344;1.53198e-05;10 mA;
1093.4;0.457672;69;346;1.5625e-05;10 mA;
1093.8;0.458527;69.4;348;1.57471e-05;10 mA;
1094.2;0.459442;69.8;350;1.52283e-05;10 mA;
1094.6;0.460327;70.2;352;1.53198e-05;10 mA;
1095;0.461243;70.6;354;1.53809e-05;10 mA;
1095.4;0.462128;71;356;1.53809e-05;10 mA;
1095.8;0.463043;71.4;358;1.53198e-05;10 mA;
1096.2;0.463928;71.8;360;1.53198e-05;10 mA;
1096.6;0.464783;72.2;362;1.53809e-05;10 mA;
1097;0.465729;72.6;364;1.54419e-05;10 mA;
1097.4;0.466644;73;366;1.5564e-05;10 mA;
1097.8;0.46756;73.4;368;1.5686e-05;10 mA;
1098.2;0.468445;73.8;370;1.54114e-05;10 mA;
1098.6;0.46936;74.2;372;1.57776e-05;10 mA;
1099;0.470245;74.6;374;1.55334e-05;10 mA;
1099.4;0.471191;75;376;1.59607e-05;10 mA;
1099.8;0.472107;75.4;378;1.55945e-05;10 mA;
1100.2;0.473022;75.8;380;1.52588e-05;10 mA;
1100.6;0.473969;76.2;382;1.54724e-05;10 mA;
1101;0.474884;76.6;384;1.55029e-05;10 mA;
1101.4;0.4758;77;386;1.53198e-05;10 mA;
1101.8;0.476746;77.4;388;1.55334e-05;10 mA;
1102.2;0.477692;77.8;390;1.55334e-05;10 mA;
1102.6;0.478607;78.2;392;1.55334e-05;10 mA;
1103;0.479553;78.6;394;1.55945e-05;10 mA;
1103.4;0.480469;79;396;1.57776e-05;10 mA;
1103.8;0.481384;79.4;398;1.5564e-05;10 mA;
1104.2;0.48233;79.8;400;1.55334e-05;10 mA;
1104.6;0.483246;80.2;402;1.5564e-05;10 mA;
1105;0.484222;80.6;404;1.54724e-05;10 mA;
1105.4;0.485138;81;406;1.55334e-05;10 mA;
1105.8;0.486053;81.4;408;1.55945e-05;10 mA;
1106.2;0.48703;81.8;410;1.53198e-05;10 mA;
1106.6;0.487976;82.2;412;1.53503e-05;10 mA;
1107;0.488892;82.6;414;1.5625e-05;10 mA;
1107.4;0.489838;83;416;1.5564e-05;10 mA;
1107.8;0.490753;83.4;418;1.55945e-05;10 mA;
1108.2;0.491699;83.8;420;1.51978e-05;10 mA;
1108.6;0.492645;84.2;422;1.5564e-05;10 mA;
1109;0.493591;84.6;424;1.54419e-05;10 mA;
1109.4;0.494537;85;426;1.55945e-05;10 mA;
1109.8;0.495422;85.4;428;1.52588e-05;10 mA;
1110.2;0.496338;85.8;430;1.5564e-05;10 mA;
1110.6;0.497314;86.2;432;1.54114e-05;10 mA;
1111;0.49826;86.6;434;1.5686e-05;10 mA;
1111.4;0.499176;87;436;1.52588e-05;10 mA;
1111.8;0.499878;87.4;438;1.55029e-05;10 mA;
1112.2;0.500793;87.8;440;1.55334e-05;10 mA;
1112.6;0.502014;88.2;442;1.55945e-05;10 mA;
1113;0.50293;88.6;444;1.53809e-05;10 mA;
1113.4;0.503845;89;446;1.55334e-05;10 mA;
1113.8;0.504761;89.4;448;1.53809e-05;10 mA;
1114.2;0.505676;89.8;450;1.54114e-05;10 mA;
1114.6;0.506592;90.2;452;1.53503e-05;10 mA;
1115;0.507507;90.6;454;1.53198e-05;10 mA;
1115.4;0.508423;91;456;1.52588e-05;10 mA;
1115.8;0.509644;91.4;458;1.56555e-05;10 mA;
1116.2;0.510559;91.8;460;1.52893e-05;10 mA;
1116.6;0.511475;92.2;462;1.55945e-05;10 mA;
1117;0.51239;92.6;464;1.5564e-05;10 mA;
1117.4;0.513306;93;466;1.53809e-05;10 mA;
1117.8;0.514526;93.4;468;1.53198e-05;10 mA;
1118.2;0.515442;93.8;470;1.5564e-05;10 mA;
1118.6;0.516357;94.2;472;1.5686e-05;10 mA;
1119;0.517273;94.6;474;1.5564e-05;10 mA;
1119.4;0.518188;95;476;1.57776e-05;10 mA;
1119.8;0.519104;95.4;478;1.54724e-05;10 mA;
1120.2;0.52002;95.8;480;1.5686e-05;10 mA;
1120.6;0.52124;96.2;482;1.56555e-05;10 mA;
1121;0.522156;96.6;484;1.53198e-05;10 mA;
1121.4;0.523071;97;486;1.54114e-05;10 mA;
1121.8;0.523987;97.4;488;1.56555e-05;10 mA;
1122.2;0.524902;97.8;490;1.55029e-05;10 mA;
1122.6;0.526123;98.2;492;1.55945e-05;10 mA;
1123;0.527039;98.6;494;1.55029e-05;10 mA;
1123.4;0.527954;99;496;1.55945e-05;10 mA;
1123.8;0.529175;99.4;498;1.59607e-05;10 mA;
1124.2;0.53009;99.8;500;1.5686e-05;10 mA;
1124.6;0.531006;100.2;502;1.55334e-05;10 mA;
1125;0.531921;100.6;504;1.55945e-05;10 mA;
1125.4;0.532837;101;506;1.55334e-05;10 mA;
1125.8;0.534058;101.4;508;1.55029e-05;10 mA;
1126.2;0.534973;101.8;510;1.54114e-05;10 mA;
1126.6;0.535889;102.2;512;1.54114e-05;10 mA;
1127;0.536804;102.6;514;1.5564e-05;10 mA;
1127.4;0.538025;103;516;1.57471e-05;10 mA;
1127.8;0.53894;103.4;518;1.53809e-05;10 mA;
1128.2;0.539856;103.8;520;1.55029e-05;10 mA;
1128.6;0.540771;104.2;522;1.58081e-05;10 mA;
1129;0.541992;104.6;524;1.55029e-05;10 mA;
1129.4;0.542908;105;526;1.55334e-05;10 mA;
1129.8;0.543823;105.4;528;1.53503e-05;10 mA;
1130.2;0.544739;105.8;530;1.55334e-05;10 mA;
1130.6;0.545959;106.2;532;1.55029e-05;10 mA;
1131;0.546875;106.6;534;1.5564e-05;10 mA;
1131.4;0.547791;107;536;1.58081e-05;10 mA;
1131.8;0.548706;107.4;538;1.55029e-05;10 mA;
1132.2;0.549927;107.8;540;1.54114e-05;10 mA;
1132.6;0.550842;108.2;542;1.53809e-05;10 mA;
1133;0.552063;108.6;544;1.59302e-05;10 mA;
1133.4;0.552979;109;546;1.55945e-05;10 mA;
1133.8;0.553894;109.4;548;1.59607e-05;10 mA;
1134.2;0.55481;109.8;550;1.57166e-05;10 mA;
1134.6;0.55603;110.2;552;1.56555e-05;10 mA;
1135;0.556946;110.6;554;1.58081e-05;10 mA;
1135.4;0.557861;111;556;1.58691e-05;10 mA;
1135.8;0.559082;111.4;558;1.57166e-05;10 mA;
1136.2;0.559998;111.8;560;1.5564e-05;10 mA;
1136.6;0.560913;112.2;562;1.58386e-05;10 mA;
1137;0.562134;112.6;564;1.55029e-05;10 mA;
1137.4;0.563049;113;566;1.5564e-05;10 mA;
1137.8;0.563965;113.4;568;1.5686e-05;10 mA;
1138.2;0.565186;113.8;570;1.57166e-05;10 mA;
1138.6;0.566101;114.2;572;1.5686e-05;10 mA;
1139;0.567017;114.6;574;1.56555e-05;10 mA;
1139.4;0.568237;115;576;1.5564e-05;10 mA;
1139.8;0.569153;115.4;578;1.57776e-05;10 mA;
1140.2;0.570068;115.8;580;1.55945e-05;10 mA;
1140.6;0.570984;116.2;582;1.59607e-05;10 mA;
1141;0.572205;116.6;584;1.58081e-05;10 mA;
1141.4;0.57312;117;586;1.55334e-05;10 mA;
1141.8;0.574036;117.4;588;1.53503e-05;10 mA;
1142.2;0.574951;117.8;590;1.58997e-05;10 mA;
1142.6;0.576172;118.2;592;1.5564e-05;10 mA;
1143;0.577087;118.6;594;1.54419e-05;10 mA;
1143.4;0.578003;119;596;1.5686e-05;10 mA;
1143.8;0.578918;119.4;598;1.55334e-05;10 mA;
1144.2;0.579834;119.8;600;1.5686e-05;10 mA;
1144.6;0.581055;120.2;602;1.57471e-05;10 mA;
1145;0.58197;120.6;604;1.54114e-05;10 mA;
1145.4;0.582886;121;606;1.56555e-05;10 mA;
1145.8;0.583801;121.4;608;1.55945e-05;10 mA;
1146.2;0.585022;121.8;610;1.54724e-05;10 mA;
1146.6;0.5859375;122.2;612;1.5625e-05;10 mA;
1147;0.586853;122.6;614;1.5625e-05;10 mA;
1147.4;0.588074;123;616;1.54724e-05;10 mA;
1147.8;0.588989;123.4;618;1.56555e-05;10 mA;
1148.2;0.589905;123.8;620;1.5564e-05;10 mA;
1148.6;0.591125;124.2;622;1.50757e-05;10 mA;
1149;0.592041;124.6;624;1.58081e-05;10 mA;
1149.4;0.592957;125;626;1.55334e-05;10 mA;
1149.8;0.594177;125.4;628;1.58081e-05;10 mA;
1150.2;0.595093;125.8;630;1.54419e-05;10 mA;
1150.6;0.596008;126.2;632;1.57166e-05;10 mA;
1151;0.596924;126.6;634;1.54419e-05;10 mA;
1151.4;0.597839;127;636;1.5564e-05;10 mA;
1151.8;0.59906;127.4;638;1.60522e-05;10 mA;
1152.2;0.599976;127.8;640;1.56555e-05;10 mA;
1152.6;0.600891;128.2;642;1.58386e-05;10 mA;
1153;0.602112;128.6;644;1.5564e-05;10 mA;
1153.4;0.603027;129;646;1.53809e-05;10 mA;
1153.8;0.603943;129.4;648;1.56555e-05;10 mA;
1154.2;0.604858;129.8;650;1.5625e-05;10 mA;
1154.6;0.605774;130.2;652;1.5625e-05;10 mA;
1155;0.606995;130.6;654;1.58081e-05;10 mA;
1155.4;0.60791;131;656;1.5564e-05;10 mA;
1155.8;0.608826;131.4;658;1.55945e-05;10 mA;
1156.2;0.609741;131.8;660;1.5564e-05;10 mA;
1156.6;0.610962;132.2;662;1.54114e-05;10 mA;
1157;0.611877;132.6;664;1.59912e-05;10 mA;
1157.4;0.612793;133;666;1.59912e-05;10 mA;
1157.8;0.613708;133.4;668;1.55945e-05;10 mA;
1158.2;0.614624;133.8;670;1.57776e-05;10 mA;
1158.6;0.615845;134.2;672;1.55945e-05;10 mA;
1159;0.61676;134.6;674;1.5625e-05;10 mA;
1159.4;0.617676;135;676;1.58691e-05;10 mA;
1159.8;0.618591;135.4;678;1.56555e-05;10 mA;
1160.2;0.619507;135.8;680;1.5564e-05;10 mA;
1160.6;0.620422;136.2;682;1.5625e-05;10 mA;
1161;0.621643;136.6;684;1.51978e-05;10 mA;
1161.4;0.622559;137;686;1.59607e-05;10 mA;
1161.8;0.623474;137.4;688;1.59302e-05;10 mA;
1162.2;0.62439;137.8;690;1.57471e-05;10 mA;
1162.6;0.625305;138.2;692;1.5625e-05;10 mA;
1163;0.626221;138.6;694;1.53503e-05;10 mA;
1163.4;0.627136;139;696;1.55334e-05;10 mA;
1163.8;0.628052;139.4;698;1.57471e-05;10 mA;
1164.2;0.629272;139.8;700;1.59607e-05;10 mA;
1164.6;0.630188;140.2;702;1.54114e-05;10 mA;
1165;0.631104;140.6;704;1.57776e-05;10 mA;
1165.4;0.632019;141;706;1.59302e-05;10 mA;
1165.8;0.632935;141.4;708;1.57166e-05;10 mA;
1166.2;0.63385;141.8;710;1.56555e-05;10 mA;
1166.6;0.634766;142.2;712;1.55334e-05;10 mA;
1167;0.635986;142.6;714;1.5564e-05;10 mA;
1167.4;0.636902;143;716;1.55945e-05;10 mA;
1167.8;0.637817;143.4;718;1.5564e-05;10 mA;
1168.2;0.638733;143.8;720;1.53198e-05;10 mA;
1168.6;0.639648;144.2;722;1.55334e-05;10 mA;
1169;0.640564;144.6;724;1.57776e-05;10 mA;
1169.4;0.641479;145;726;1.55334e-05;10 mA;
1169.8;0.6427;145.4;728;1.5625e-05;10 mA;
1170.2;0.643616;145.8;730;1.55334e-05;10 mA;
1170.6;0.644531;146.2;732;1.54114e-05;10 mA;
1171;0.645447;146.6;734;1.5625e-05;10 mA;
1171.4;0.646362;147;736;1.57166e-05;10 mA;
1171.8;0.647278;147.4;738;1.56555e-05;10 mA;
1172.2;0.648193;147.8;740;1.58386e-05;10 mA;
1172.6;0.649109;148.2;742;1.58691e-05;10 mA;
1173;0.650024;148.6;744;1.58081e-05;10 mA;
1173.4;0.65094;149;746;1.55945e-05;10 mA;
1173.8;0.652161;149.4;748;1.55945e-05;10 mA;
1174.2;0.653076;149.8;750;1.58386e-05;10 mA;
1174.6;0.653992;150.2;752;1.56555e-05;10 mA;
1175;0.654907;150.6;754;1.58691e-05;10 mA;
1175.4;0.655823;151;756;1.58997e-05;10 mA;
1175.8;0.656738;151.4;758;1.58386e-05;10 mA;
1176.2;0.657654;151.8;760;1.61438e-05;10 mA;
1176.6;0.658569;152.2;762;1.55945e-05;10 mA;
1177;0.659485;152.6;764;1.55334e-05;10 mA;
1177.4;0.6604;153;766;1.5686e-05;10 mA;
1177.8;0.661316;153.4;768;1.5625e-05;10 mA;
1178.2;0.662231;153.8;770;1.55029e-05;10 mA;
1178.6;0.663147;154.2;772;1.5564e-05;10 mA;
1179;0.6640625;154.6;774;1.5564e-05;10 mA;
1179.4;0.664978;155;776;1.5625e-05;10 mA;
1179.8;0.665894;155.4;778;1.56555e-05;10 mA;
1180.2;0.666809;155.8;780;1.57166e-05;10 mA;
1180.6;0.667725;156.2;782;1.59302e-05;10 mA;
1181;0.66864;156.6;784;1.54419e-05;10 mA;
1181.4;0.669556;157;786;1.57471e-05;10 mA;
1181.8;0.670471;157.4;788;1.59302e-05;10 mA;
1182.2;0.671387;157.8;790;1.59607e-05;10 mA;
1182.6;0.672302;158.2;792;1.54114e-05;10 mA;
1183;0.673523;158.6;794;1.58386e-05;10 mA;
1183.4;0.674133;159;796;1.55334e-05;10 mA;
1183.8;0.675049;159.4;798;1.55334e-05;10 mA;
1184.2;0.675964;159.8;800;1.57776e-05;10 mA;
1184.6;0.67688;160.2;802;1.59912e-05;10 mA;
1185;0.677795;160.6;804;1.56555e-05;10 mA;
1185.4;0.678711;161;806;1.59912e-05;10 mA;
1185.8;0.679626;161.4;808;1.58386e-05;10 mA;
1186.2;0.680542;161.8;810;1.57166e-05;10 mA;
1186.6;0.681458;162.2;812;1.59912e-05;10 mA;
1187;0.682373;162.6;814;1.54114e-05;10 mA;
1187.4;0.683289;163;816;1.58386e-05;10 mA;
1187.8;0.684204;163.4;818;1.57776e-05;10 mA;
1188.2;0.684814;163.8;820;1.57471e-05;10 mA;
1188.6;0.68573;164.2;822;1.55334e-05;10 mA;
1189;0.686646;164.6;824;1.55334e-05;10 mA;
1189.4;0.687561;165;826;1.53198e-05;10 mA;
1189.8;0.688477;165.4;828;1.5625e-05;10 mA;
1190.2;0.689392;165.8;830;1.54419e-05;10 mA;
1190.6;0.690308;166.2;832;1.53809e-05;10 mA;
1191;0.691223;166.6;834;1.58997e-05;10 mA;
1191.4;0.691833;167;836;1.53198e-05;10 mA;
1191.8;0.692749;167.4;838;1.54419e-05;10 mA;
1192.2;0.693665;167.8;840;1.5564e-05;10 mA;
1192.6;0.69458;168.2;842;1.5564e-05;10 mA;
1193;0.695496;168.6;844;1.54724e-05;10 mA;
1193.4;0.696411;169;846;1.60522e-05;10 mA;
1193.8;0.697327;169.4;848;1.55334e-05;10 mA;
1194.2;0.697937;169.8;850;1.56555e-05;10 mA;
1194.6;0.698853;170.2;852;1.57471e-05;10 mA;
1195;0.699768;170.6;854;1.55029e-05;10 mA;
1195.4;0.700684;171;856;1.53809e-05;10 mA;
1195.8;0.701599;171.4;858;1.57776e-05;10 mA;
1196.2;0.702515;171.8;860;1.57471e-05;10 mA;
1196.6;0.70343;172.2;862;1.54114e-05;10 mA;
1197;0.704041;172.6;864;1.5625e-05;10 mA;
1197.4;0.704956;173;866;1.57166e-05;10 mA;
1197.8;0.705872;173.4;868;1.57776e-05;10 mA;
1198.2;0.706482;173.8;870;1.53503e-05;10 mA;
1198.6;0.707397;174.2;872;1.58081e-05;10 mA;
1199;0.708313;174.6;874;1.58386e-05;10 mA;
1199.4;0.709229;175;876;1.53809e-05;10 mA;
1199.8;0.709839;175.4;878;1.58081e-05;10 mA;
1200.2;0.710754;175.8;880;1.5625e-05;10 mA;
1200.6;0.71167;176.2;882;1.57166e-05;10 mA;
1201;0.712585;176.6;884;1.5625e-05;10 mA;
1201.4;0.713501;177;886;1.58691e-05;10 mA;
1201.8;0.714111;177.4;888;1.55334e-05;10 mA;
1202.2;0.715027;177.8;890;1.5686e-05;10 mA;
1202.6;0.715942;178.2;892;1.55334e-05;10 mA;
1203;0.716858;178.6;894;1.56555e-05;10 mA;
1203.4;0.717773;179;896;1.59912e-05;10 mA;
1203.8;0.718384;179.4;898;1.55945e-05;10 mA;
1204.2;0.719299;179.8;900;1.59607e-05;10 mA;
1204.6;0.720215;180.2;902;1.58997e-05;10 mA;
1205;0.72113;180.6;904;1.5686e-05;10 mA;
1205.4;0.722046;181;906;1.57166e-05;10 mA;
1205.8;0.722656;181.4;908;1.57776e-05;10 mA;
1206.2;0.723572;181.8;910;1.5686e-05;10 mA;
1206.6;0.724487;182.2;912;1.61133e-05;10 mA;
1207;0.725403;182.6;914;1.57166e-05;10 mA;
1207.4;0.726013;183;916;1.59302e-05;10 mA;
1207.8;0.726929;183.4;918;1.5686e-05;10 mA;
1208.2;0.727539;183.8;920;1.5625e-05;10 mA;
1208.6;0.728455;184.2;922;1.5686e-05;10 mA;
1209;0.72937;184.6;924;1.60522e-05;10 mA;
1209.4;0.72998;185;926;1.54419e-05;10 mA;
1209.8;0.730896;185.4;928;1.5564e-05;10 mA;
1210.2;0.731812;185.8;930;1.55334e-05;10 mA;
1210.6;0.732422;186.2;932;1.59302e-05;10 mA;
1211;0.733337;186.6;934;1.5564e-05;10 mA;
1211.4;0.734253;187;936;1.57166e-05;10 mA;
1211.8;0.734863;187.4;938;1.56555e-05;10 mA;
1212.2;0.735779;187.8;940;1.58691e-05;10 mA;
1212.6;0.736389;188.2;942;1.58997e-05;10 mA;
1213;0.737305;188.6;944;1.5625e-05;10 mA;
1213.4;0.737915;189;946;1.55945e-05;10 mA;
1213.8;0.738831;189.4;948;1.5686e-05;10 mA;
1214.2;0.739441;189.8;950;1.55334e-05;10 mA;
1214.6;0.740356;190.2;952;1.54419e-05;10 mA;
1215;0.740967;190.6;954;1.5625e-05;10 mA;
1215.4;0.741882;191;956;1.53503e-05;10 mA;
1215.8;0.742493;191.4;958;1.58081e-05;10 mA;
1216.2;0.743408;191.8;960;1.59302e-05;10 mA;
1216.6;0.744019;192.2;962;1.56555e-05;10 mA;
1217;0.744934;192.6;964;1.62964e-05;10 mA;
1217.4;0.745544;193;966;1.5625e-05;10 mA;
1217.8;0.74646;193.4;968;1.56555e-05;10 mA;
1218.2;0.74707;193.8;970;1.54419e-05;10 mA;
1218.6;0.747986;194.2;972;1.59607e-05;10 mA;
1219;0.748596;194.6;974;1.55334e-05;10 mA;
1219.4;0.749207;195;976;1.57776e-05;10 mA;
1219.8;0.750122;195.4;978;1.58081e-05;10 mA;
1220.2;0.750732;195.8;980;1.5686e-05;10 mA;
1220.6;0.751648;196.2;982;1.5564e-05;10 mA;
1221;0.752258;196.6;984;1.58386e-05;10 mA;
1221.4;0.752869;197;986;1.57776e-05;10 mA;
1221.8;0.753784;197.4;988;1.5625e-05;10 mA;
1222.2;0.754395;197.8;990;1.58997e-05;10 mA;
1222.6;0.755005;198.2;992;1.55945e-05;10 mA;
1223;0.75592;198.6;994;1.58081e-05;10 mA;
1223.4;0.756531;199;996;1.5564e-05;10 mA;
1223.8;0.757141;199.4;998;1.58081e-05;10 mA;
1224.2;0.758057;199.8;1000;1.59912e-05;10 mA;
1224.6;0.758667;200.2;1002;1.57776e-05;10 mA;
1225;0.759277;200.6;1004;1.53503e-05;10 mA;
1225.4;0.760193;201;1006;1.58386e-05;10 mA;
1225.8;0.760803;201.4;1008;1.56555e-05;10 mA;
1226.2;0.761414;201.8;1010;1.5686e-05;10 mA;
1226.6;0.762329;202.2;1012;1.60217e-05;10 mA;
1227;0.762939;202.6;1014;1.55945e-05;10 mA;
1227.4;0.76355;203;1016;1.57471e-05;10 mA;
1227.8;0.76416;203.4;1018;1.58691e-05;10 mA;
1228.2;0.765076;203.8;1020;1.58386e-05;10 mA;
1228.6;0.765686;204.2;1022;1.53809e-05;10 mA;
1229;0.766296;204.6;1024;1.5686e-05;10 mA;
1229.4;0.767212;205;1026;1.56555e-05;10 mA;
1229.8;0.767822;205.4;1028;1.53503e-05;10 mA;
1230.2;0.768433;205.8;1030;1.61438e-05;10 mA;
1230.6;0.769043;206.2;1032;1.59912e-05;10 mA;
1231;0.769958;206.6;1034;1.58386e-05;10 mA;
1231.4;0.770569;207;1036;1.59912e-05;10 mA;
1231.8;0.771179;207.4;1038;1.53503e-05;10 mA;
1232.2;0.77179;207.8;1040;1.5686e-05;10 mA;
1232.6;0.7724;208.2;1042;1.56555e-05;10 mA;
1233;0.77301;208.6;1044;1.58386e-05;10 mA;
1233.4;0.773926;209;1046;1.56555e-05;10 mA;
1233.8;0.774536;209.4;1048;1.54114e-05;10 mA;
1234.2;0.775146;209.8;1050;1.54724e-05;10 mA;
1234.6;0.775757;210.2;1052;1.58386e-05;10 mA;
1235;0.776367;210.6;1054;1.58691e-05;10 mA;
1235.4;0.776978;211;1056;1.61133e-05;10 mA;
1235.8;0.777588;211.4;1058;1.57776e-05;10 mA;
1236.2;0.778198;211.8;1060;1.57471e-05;10 mA;
1236.6;0.779114;212.2;1062;1.57776e-05;10 mA;
1237;0.779724;212.6;1064;1.58081e-05;10 mA;
1237.4;0.780334;213;1066;1.53809e-05;10 mA;
1237.8;0.780945;213.4;1068;1.55945e-05;10 mA;
1238.2;0.781555;213.8;1070;1.59302e-05;10 mA;
1238.6;0.78186;214.2;1072;1.57471e-05;10 mA;
1239;0.782471;214.6;1074;1.5686e-05;10 mA;
1239.4;0.783081;215;1076;1.5686e-05;10 mA;
1239.8;0.783691;215.4;1078;1.55945e-05;10 mA;
1240.2;0.784302;215.8;1080;1.53198e-05;10 mA;
1240.6;0.784912;216.2;1082;1.59607e-05;10 mA;
1241;0.785522;216.6;1084;1.58081e-05;10 mA;
1241.4;0.786133;217;1086;1.59912e-05;10 mA;
1241.8;0.786743;217.4;1088;1.55334e-05;10 mA;
1242.2;0.787354;217.8;1090;1.60217e-05;10 mA;
1242.6;0.787964;218.2;1092;1.58386e-05;10 mA;
1243;0.788574;218.6;1094;1.5686e-05;10 mA;
1243.4;0.789185;219;1096;1.5564e-05;10 mA;
1243.8;0.789795;219.4;1098;1.5564e-05;10 mA;
1244.2;0.790405;219.8;1100;1.53809e-05;10 mA;
1244.6;0.791016;220.2;1102;1.58386e-05;10 mA;
1245;0.791626;220.6;1104;1.56555e-05;10 mA;
1245.4;0.792236;221;1106;1.59607e-05;10 mA;
1245.8;0.792847;221.4;1108;1.55945e-05;10 mA;
1246.2;0.793152;221.8;1110;1.53809e-05;10 mA;
1246.6;0.793762;222.2;1112;1.59302e-05;10 mA;
1247;0.794373;222.6;1114;1.57471e-05;10 mA;
1247.4;0.794983;223;1116;1.56555e-05;10 mA;
1247.8;0.795288;223.4;1118;1.55945e-05;10 mA;
1248.2;0.795898;223.8;1120;1.58081e-05;10 mA;
1248.6;0.796509;224.2;1122;1.57776e-05;10 mA;
1249;0.797119;224.6;1124;1.55945e-05;10 mA;
1249.4;0.797729;225;1126;1.58081e-05;10 mA;
1249.8;0.798035;225.4;1128;1.59302e-05;10 mA;
1250.2;0.798645;225.8;1130;1.5564e-05;10 mA;
1250.6;0.799255;226.2;1132;1.61133e-05;10 mA;
1251;0.799866;226.6;1134;1.58081e-05;10 mA;
1251.4;0.800171;227;1136;1.5686e-05;10 mA;
1251.8;0.800781;227.4;1138;1.53198e-05;10 mA;
1252.2;0.801086;227.8;1140;1.56555e-05;10 mA;
1252.6;0.801697;228.2;1142;1.53198e-05;10 mA;
1253;0.802307;228.6;1144;1.61133e-05;10 mA;
1253.4;0.802612;229;1146;1.57471e-05;10 mA;
1253.8;0.803223;229.4;1148;1.5625e-05;10 mA;
1254.2;0.803833;229.8;1150;1.62048e-05;10 mA;
1254.6;0.804138;230.2;1152;1.5564e-05;10 mA;
1255;0.804749;230.6;1154;1.62964e-05;10 mA;
1255.4;0.805359;231;1156;1.57471e-05;10 mA;
1255.8;0.805664;231.4;1158;1.54419e-05;10 mA;
1256.2;0.806274;231.8;1160;1.5686e-05;10 mA;
1256.6;0.80658;232.2;1162;1.57776e-05;10 mA;
1257;0.80719;232.6;1164;1.55945e-05;10 mA;
1257.4;0.8078;233;1166;1.59607e-05;10 mA;
1257.8;0.808105;233.4;1168;1.55945e-05;10 mA;
1258.2;0.808716;233.8;1170;1.55945e-05;10 mA;
1258.6;0.809021;234.2;1172;1.57776e-05;10 mA;
1259;0.809631;234.6;1174;1.58081e-05;10 mA;
1259.4;0.809937;235;1176;1.58386e-05;10 mA;
1259.8;0.810242;235.4;1178;1.59607e-05;10 mA;
1260.2;0.810852;235.8;1180;1.56555e-05;10 mA;
1260.6;0.811157;236.2;1182;1.5686e-05;10 mA;
1261;0.811768;236.6;1184;1.60217e-05;10 mA;
1261.4;0.812073;237;1186;1.5686e-05;10 mA;
1261.8;0.812683;237.4;1188;1.5564e-05;10 mA;
1262.2;0.812988;237.8;1190;1.5686e-05;10 mA;
1262.6;0.813599;238.2;1192;1.61133e-05;10 mA;
1263;0.813904;238.6;1194;1.5625e-05;10 mA;
1263.4;0.814514;239;1196;1.55029e-05;10 mA;
1263.8;0.814819;239.4;1198;1.5625e-05;10 mA;
1264.2;0.815125;239.8;1200;1.58386e-05;10 mA;
1264.6;0.815735;240.2;1202;1.60217e-05;10 mA;
1265;0.81604;240.6;1204;1.58081e-05;10 mA;
1265.4;0.81665;241;1206;1.58386e-05;10 mA;
1265.8;0.816956;241.4;1208;1.57471e-05;10 mA;
1266.2;0.817261;241.8;1210;1.57776e-05;10 mA;
1266.6;0.817871;242.2;1212;1.59302e-05;10 mA;
1267;0.818176;242.6;1214;1.59302e-05;10 mA;
1267.4;0.818481;243;1216;1.55334e-05;10 mA;
1267.8;0.819092;243.4;1218;1.59912e-05;10 mA;
1268.2;0.819397;243.8;1220;1.52588e-05;10 mA;
1268.6;0.819702;244.2;1222;1.58386e-05;10 mA;
1269;0.8203125;244.6;1224;1.59607e-05;10 mA;
1269.4;0.820618;245;1226;1.57776e-05;10 mA;
1269.8;0.820923;245.4;1228;1.5564e-05;10 mA;
1270.2;0.821228;245.8;1230;1.58386e-05;10 mA;
1270.6;0.821838;246.2;1232;1.58081e-05;10 mA;
1271;0.822144;246.6;1234;1.58997e-05;10 mA;
1271.4;0.822449;247;1236;1.53809e-05;10 mA;
1271.8;0.823059;247.4;1238;1.59607e-05;10 mA;
1272.2;0.823364;247.8;1240;1.5686e-05;10 mA;
1272.6;0.823669;248.2;1242;1.59607e-05;10 mA;
1273;0.82428;248.6;1244;1.58081e-05;10 mA;
1273.4;0.824585;249;1246;1.58997e-05;10 mA;
1273.8;0.82489;249.4;1248;1.58997e-05;10 mA;
1274.2;0.8255;249.8;1250;1.56555e-05;10 mA;
1274.6;0.825806;250.2;1252;1.57471e-05;10 mA;
1275;0.826111;250.6;1254;1.54419e-05;10 mA;
1275.4;0.826416;251;1256;1.55945e-05;10 mA;
1275.8;0.826721;251.4;1258;1.57776e-05;10 mA;
1276.2;0.827332;251.8;1260;1.57776e-05;10 mA;
1276.6;0.827637;252.2;1262;1.5625e-05;10 mA;
1277;0.827942;252.6;1264;1.59302e-05;10 mA;
1277.4;0.828247;253;1266;1.57166e-05;10 mA;
1277.8;0.828857;253.4;1268;1.57776e-05;10 mA;
1278.2;0.829163;253.8;1270;1.58691e-05;10 mA;
1278.6;0.829468;254.2;1272;1.56555e-05;10 mA;
1279;0.829773;254.6;1274;1.62354e-05;10 mA;
1279.4;0.830078;255;1276;1.57776e-05;10 mA;
1279.8;0.830383;255.4;1278;1.5564e-05;10 mA;
1280.2;0.830688;255.8;1280;1.58691e-05;10 mA;
1280.6;0.830994;256.2;1282;1.57471e-05;10 mA;
1281;0.831604;256.6;1284;1.58386e-05;10 mA;
1281.4;0.831909;257;1286;1.55945e-05;10 mA;
1281.8;0.832214;257.4;1288;1.54114e-05;10 mA;
1282.2;0.83252;257.8;1290;1.61438e-05;10 mA;
1282.6;0.832825;258.2;1292;1.56555e-05;10 mA;
1283;0.83313;258.6;1294;1.55334e-05;10 mA;
1283.4;0.833435;259;1296;1.58691e-05;10 mA;
1283.8;0.83374;259.4;1298;1.54419e-05;10 mA;
1284.2;0.834045;259.8;1300;1.55029e-05;10 mA;
1284.6;0.834351;260.2;1302;1.5686e-05;10 mA;
1285;0.834656;260.6;1304;1.5686e-05;10 mA;
1285.4;0.834961;261;1306;1.59302e-05;10 mA;
1285.8;0.835266;261.4;1308;1.57471e-05;10 mA;
1286.2;0.835571;261.8;1310;1.53809e-05;10 mA;
1286.6;0.835876;262.2;1312;1.54419e-05;10 mA;
1287;0.836182;262.6;1314;1.57166e-05;10 mA;
1287.4;0.836487;263;1316;1.5564e-05;10 mA;
1287.8;0.836792;263.4;1318;1.55334e-05;10 mA;
1288.2;0.837097;263.8;1320;1.58081e-05;10 mA;
1288.6;0.837402;264.2;1322;1.58997e-05;10 mA;
1289;0.837708;264.6;1324;1.60217e-05;10 mA;
1289.4;0.838013;265;1326;1.5625e-05;10 mA;
1289.8;0.838318;265.4;1328;1.58386e-05;10 mA;
1290.2;0.838623;265.8;1330;1.58081e-05;10 mA;
1290.6;0.838928;266.2;1332;1.54419e-05;10 mA;
1291;0.839233;266.6;1334;1.55334e-05;10 mA;
1291.4;0.839539;267;1336;1.57776e-05;10 mA;
1291.8;0.839844;267.4;1338;1.56555e-05;10 mA;
1292.2;0.840149;267.8;1340;1.59912e-05;10 mA;
1292.6;0.840454;268.2;1342;1.57776e-05;10 mA;
1293;0.840759;268.6;1344;1.53198e-05;10 mA;
1293.4;0.841064;269;1346;1.58386e-05;10 mA;
1293.8;0.84137;269.4;1348;1.56555e-05;10 mA;
1294.2;0.841675;269.8;1350;1.58386e-05;10 mA;
1294.6;0.84198;270.2;1352;1.57166e-05;10 mA;
1295;0.842285;270.6;1354;1.5686e-05;10 mA;
1295.4;0.84259;271;1356;1.56555e-05;10 mA;
1295.8;0.842896;271.4;1358;1.58081e-05;10 mA;
1296.2;0.842896;271.8;1360;1.58691e-05;10 mA;
1296.6;0.843201;272.2;1362;1.5686e-05;10 mA;
1297;0.843506;272.6;1364;1.57471e-05;10 mA;
1297.4;0.843811;273;1366;1.57166e-05;10 mA;
1297.8;0.844116;273.4;1368;1.57471e-05;10 mA;
1298.2;0.844116;273.8;1370;1.60217e-05;10 mA;
1298.6;0.844421;274.2;1372;1.56555e-05;10 mA;
1299;0.844727;274.6;1374;1.58081e-05;10 mA;
1299.4;0.845032;275;1376;1.57776e-05;10 mA;
1299.8;0.845337;275.4;1378;1.58386e-05;10 mA;
1300.2;0.845337;275.8;1380;1.5686e-05;10 mA;
1300.6;0.845642;276.2;1382;1.55334e-05;10 mA;
1301;0.845947;276.6;1384;1.56555e-05;10 mA;
1301.4;0.846252;277;1386;1.57776e-05;10 mA;
1301.8;0.846558;277.4;1388;1.5625e-05;10 mA;
1302.2;0.846558;277.8;1390;1.58386e-05;10 mA;
1302.6;0.846863;278.2;1392;1.55334e-05;10 mA;
1303;0.847168;278.6;1394;1.5564e-05;10 mA;
1303.4;0.847473;279;1396;1.57776e-05;10 mA;
1303.8;0.847778;279.4;1398;1.55945e-05;10 mA;
1304.2;0.847778;279.8;1400;1.58081e-05;10 mA;
1304.6;0.848083;280.2;1402;1.55945e-05;10 mA;
1305;0.848389;280.6;1404;1.58386e-05;10 mA;
1305.4;0.848694;281;1406;1.5564e-05;10 mA;
1305.8;0.848999;281.4;1408;1.57776e-05;10 mA;
1306.2;0.848999;281.8;1410;1.54724e-05;10 mA;
1306.6;0.849304;282.2;1412;1.5686e-05;10 mA;
1307;0.849609;282.6;1414;1.57166e-05;10 mA;
1307.4;0.849915;283;1416;1.60217e-05;10 mA;
1307.8;0.85022;283.4;1418;1.57471e-05;10 mA;WE(1).Potential > 0,85 V
1308.2;0.85022;283.8;1420;1.55029e-05;10 mA;WE(1).Potential > 0,85 V
1308.4;0.850525;284;1421;1.54419e-05;10 mA;WE(1).Potential > 0,85 V