File: Mxene1-10Ag-CARGA.txt
Time (s);WE(1).Potential (V);Corrected time (s);Index;WE(1).Current (A);Current range;Cutoffs
120.13;0.0160095;0;1;8.97522e-05;10 mA;WE(1).Potential > 0,85 V , WE(1).Potential > 0,85 V , WE(1).Potential > 0,85 V , WE(1).Potential > 0,85 V
120.33;0.0328552;0.2;2;9.15222e-05;10 mA;
120.53;0.0469025;0.4;3;9.0332e-05;10 mA;
120.73;0.0592957;0.6;4;8.98743e-05;10 mA;
120.93;0.0704651;0.8;5;9.21936e-05;10 mA;
121.13;0.080719;1;6;9.42078e-05;10 mA;
121.33;0.090271;1.2;7;9.00879e-05;10 mA;
121.53;0.0992126;1.4;8;9.16443e-05;10 mA;
121.73;0.107666;1.6;9;8.95691e-05;10 mA;
121.93;0.115631;1.8;10;9.23767e-05;10 mA;
122.13;0.12323;2;11;9.17358e-05;10 mA;
122.33;0.130463;2.2;12;8.99048e-05;10 mA;
122.53;0.137421;2.4;13;9.36279e-05;10 mA;
122.73;0.144073;2.6;14;8.95691e-05;10 mA;
122.93;0.150482;2.8;15;9.03015e-05;10 mA;
123.13;0.156708;3;16;9.44824e-05;10 mA;
123.33;0.16272;3.2;17;9.51843e-05;10 mA;
123.53;0.168549;3.4;18;9.25598e-05;10 mA;
123.73;0.174194;3.6;19;9.06372e-05;10 mA;
123.93;0.179657;3.8;20;8.99353e-05;10 mA;
124.13;0.185028;4;21;9.20105e-05;10 mA;
124.33;0.190247;4.2;22;9.1217e-05;10 mA;
124.53;0.1953125;4.4;23;8.984375E-05;10 mA;
124.73;0.200256;4.6;24;8.98743e-05;10 mA;
124.93;0.205078;4.8;25;9.53674e-05;10 mA;
125.13;0.209808;5;26;9.46045e-05;10 mA;
125.33;0.214447;5.2;27;9.11255e-05;10 mA;
125.53;0.218994;5.4;28;9.18274e-05;10 mA;
125.73;0.223419;5.6;29;9.13391e-05;10 mA;
125.93;0.227844;5.8;30;9.14917e-05;10 mA;
126.13;0.232147;6;31;8.97217e-05;10 mA;
126.33;0.236328;6.2;32;9.33838e-05;10 mA;
126.53;0.240509;6.4;33;9.16748e-05;10 mA;
126.73;0.244598;6.6;34;9.33533e-05;10 mA;
126.93;0.248657;6.8;35;9.375e-05;10 mA;
127.13;0.252594;7;36;9.33838e-05;10 mA;
127.33;0.2565;7.2;37;9.34143e-05;10 mA;
127.53;0.260376;7.4;38;9.09119e-05;10 mA;
127.73;0.264252;7.6;39;8.99658e-05;10 mA;
127.93;0.267975;7.8;40;9.18884e-05;10 mA;
128.13;0.271698;8;41;9.41467e-05;10 mA;
128.33;0.275421;8.2;42;9.06677e-05;10 mA;
128.53;0.279053;8.4;43;9.30176e-05;10 mA;
128.73;0.282654;8.6;44;9.1156e-05;10 mA;
128.93;0.286194;8.8;45;9.32617e-05;10 mA;
129.13;0.289703;9;46;9.30176e-05;10 mA;
129.33;0.293152;9.2;47;9.00574e-05;10 mA;
129.53;0.29657;9.4;48;9.27124e-05;10 mA;
129.73;0.299957;9.6;49;9.18274e-05;10 mA;
129.93;0.303314;9.8;50;9.21631e-05;10 mA;
130.13;0.30661;10;51;9.08813e-05;10 mA;
130.33;0.309906;10.2;52;9.02405e-05;10 mA;
130.53;0.313141;10.4;53;9.03015e-05;10 mA;
130.73;0.316345;10.6;54;9.375e-05;10 mA;
130.93;0.31955;10.8;55;9.375e-05;10 mA;
131.13;0.322662;11;56;9.17358e-05;10 mA;
131.33;0.325714;11.2;57;9.13696e-05;10 mA;
131.53;0.328796;11.4;58;9.0332e-05;10 mA;
131.73;0.331787;11.6;59;9.1217e-05;10 mA;
131.93;0.334778;11.8;60;9.36584e-05;10 mA;
132.13;0.337769;12;61;9.12781e-05;10 mA;
132.33;0.340729;12.2;62;9.0271e-05;10 mA;
132.53;0.343658;12.4;63;9.27734e-05;10 mA;
132.73;0.346527;12.6;64;9.14001e-05;10 mA;
132.93;0.349426;12.8;65;9.2041e-05;10 mA;
133.13;0.352264;13;66;9.04236e-05;10 mA;
133.33;0.355103;13.2;67;9.3689e-05;10 mA;
133.53;0.35791;13.4;68;9.37195e-05;10 mA;
133.73;0.360687;13.6;69;9.40247e-05;10 mA;
133.93;0.363495;13.8;70;9.2041e-05;10 mA;
134.13;0.366241;14;71;9.37195e-05;10 mA;
134.33;0.368958;14.2;72;9.07593e-05;10 mA;
134.53;0.371643;14.4;73;9.06677e-05;10 mA;
134.73;0.374359;14.6;74;9.03625e-05;10 mA;
134.93;0.377045;14.8;75;9.04541e-05;10 mA;
135.13;0.37973;15;76;9.40247e-05;10 mA;
135.33;0.382385;15.2;77;9.375e-05;10 mA;
135.53;0.38504;15.4;78;9.15833e-05;10 mA;
135.73;0.387695;15.6;79;9.37195e-05;10 mA;
135.93;0.390289;15.8;80;9.16443e-05;10 mA;
136.13;0.392883;16;81;9.24683e-05;10 mA;
136.33;0.395538;16.2;82;9.0271e-05;10 mA;
136.53;0.398132;16.4;83;9.06372e-05;10 mA;
136.73;0.400757;16.6;84;9.22852e-05;10 mA;
136.93;0.403412;16.8;85;9.35669e-05;10 mA;
137.13;0.406036;17;86;9.2041e-05;10 mA;
137.33;0.40863;17.2;87;9.06677e-05;10 mA;
137.53;0.411255;17.4;88;9.30481e-05;10 mA;
137.73;0.413849;17.6;89;9.05762e-05;10 mA;
137.93;0.416443;17.8;90;9.06067e-05;10 mA;
138.13;0.419067;18;91;9.31702e-05;10 mA;
138.33;0.421692;18.2;92;9.05762e-05;10 mA;
138.53;0.424316;18.4;93;9.22852e-05;10 mA;
138.73;0.426941;18.6;94;9.10339e-05;10 mA;
138.93;0.429535;18.8;95;9.3811e-05;10 mA;
139.13;0.432159;19;96;9.26819e-05;10 mA;
139.33;0.434814;19.2;97;9.3689e-05;10 mA;
139.53;0.437439;19.4;98;9.32617e-05;10 mA;
139.73;0.440094;19.6;99;9.22852e-05;10 mA;
139.93;0.442719;19.8;100;9.15833e-05;10 mA;
140.13;0.445374;20;101;9.22241e-05;10 mA;
140.33;0.448029;20.2;102;9.35669e-05;10 mA;
140.53;0.450684;20.4;103;9.33228e-05;10 mA;
140.73;0.453308;20.6;104;9.25903e-05;10 mA;
140.93;0.455994;20.8;105;9.14307e-05;10 mA;
141.13;0.458649;21;106;9.19189e-05;10 mA;
141.33;0.461304;21.2;107;9.07898e-05;10 mA;
141.53;0.463989;21.4;108;9.08203e-05;10 mA;
141.73;0.466705;21.6;109;9.26819e-05;10 mA;
141.93;0.469391;21.8;110;9.08203e-05;10 mA;
142.13;0.472046;22;111;9.31702e-05;10 mA;
142.33;0.474731;22.2;112;9.1156e-05;10 mA;
142.53;0.477417;22.4;113;9.24377e-05;10 mA;
142.73;0.480133;22.6;114;9.37805e-05;10 mA;
142.93;0.482849;22.8;115;9.375e-05;10 mA;
143.13;0.485535;23;116;9.35059e-05;10 mA;
143.33;0.488251;23.2;117;9.24683e-05;10 mA;
143.53;0.490967;23.4;118;9.2041e-05;10 mA;
143.73;0.493652;23.6;119;9.37195e-05;10 mA;
143.93;0.496368;23.8;120;9.23767e-05;10 mA;
144.13;0.499054;24;121;9.23157e-05;10 mA;
144.33;0.501709;24.2;122;9.10034e-05;10 mA;
144.53;0.50415;24.4;123;9.36279e-05;10 mA;
144.73;0.506897;24.6;124;9.36279e-05;10 mA;
144.93;0.509644;24.8;125;9.23157e-05;10 mA;
145.13;0.51239;25;126;9.21936e-05;10 mA;
145.33;0.515137;25.2;127;9.40857e-05;10 mA;
145.53;0.517578;25.4;128;9.37805e-05;10 mA;
145.73;0.520325;25.6;129;9.37805e-05;10 mA;
145.93;0.523071;25.8;130;9.22241e-05;10 mA;
146.13;0.525818;26;131;9.22546e-05;10 mA;
146.33;0.528564;26.2;132;9.21936e-05;10 mA;
146.53;0.531311;26.4;133;9.17053e-05;10 mA;
146.73;0.534058;26.6;134;9.09424e-05;10 mA;
146.93;0.536499;26.8;135;9.39331e-05;10 mA;
147.13;0.539246;27;136;9.10034e-05;10 mA;
147.33;0.541992;27.2;137;9.34448e-05;10 mA;
147.53;0.544434;27.4;138;9.0332e-05;10 mA;
147.73;0.54718;27.6;139;9.05762e-05;10 mA;
147.93;0.549927;27.8;140;9.1217e-05;10 mA;
148.13;0.552368;28;141;9.10339e-05;10 mA;
148.33;0.555115;28.2;142;9.37195e-05;10 mA;
148.53;0.557556;28.4;143;9.18274e-05;10 mA;
148.73;0.560303;28.6;144;9.2804e-05;10 mA;
148.93;0.563049;28.8;145;9.41467e-05;10 mA;
149.13;0.565491;29;146;9.34753e-05;10 mA;
149.33;0.568237;29.2;147;9.05151e-05;10 mA;
149.53;0.570679;29.4;148;9.12781e-05;10 mA;
149.73;0.573425;29.6;149;9.39941e-05;10 mA;
149.93;0.575867;29.8;150;9.41467e-05;10 mA;
150.13;0.578613;30;151;9.07288e-05;10 mA;
150.33;0.581055;30.2;152;9.08203e-05;10 mA;
150.53;0.583801;30.4;153;9.24072e-05;10 mA;
150.73;0.586243;30.6;154;9.34448e-05;10 mA;
150.93;0.588989;30.8;155;9.25293e-05;10 mA;
151.13;0.591431;31;156;9.14612e-05;10 mA;
151.33;0.594177;31.2;157;9.21021e-05;10 mA;
151.53;0.596619;31.4;158;9.06677e-05;10 mA;
151.73;0.59906;31.6;159;9.26514e-05;10 mA;
151.93;0.601807;31.8;160;9.42383e-05;10 mA;
152.13;0.604248;32;161;9.01794e-05;10 mA;
152.33;0.606995;32.2;162;9.06677e-05;10 mA;
152.53;0.609436;32.4;163;9.45435e-05;10 mA;
152.73;0.612183;32.6;164;9.03931e-05;10 mA;
152.93;0.614624;32.8;165;9.33533e-05;10 mA;
153.13;0.617065;33;166;9.20715e-05;10 mA;
153.33;0.619812;33.2;167;9.36584e-05;10 mA;
153.53;0.622253;33.4;168;9.13696e-05;10 mA;
153.73;0.624695;33.6;169;9.04236e-05;10 mA;
153.93;0.627136;33.8;170;9.17358e-05;10 mA;
154.13;0.629883;34;171;9.16748e-05;10 mA;
154.33;0.632324;34.2;172;9.39026e-05;10 mA;
154.53;0.634766;34.4;173;9.28345e-05;10 mA;
154.73;0.637207;34.6;174;9.13086e-05;10 mA;
154.93;0.639648;34.8;175;8.99658e-05;10 mA;
155.13;0.64209;35;176;9.52759e-05;10 mA;
155.33;0.644836;35.2;177;9.01184e-05;10 mA;
155.53;0.646973;35.4;178;9.375e-05;10 mA;
155.73;0.649414;35.6;179;9.2926e-05;10 mA;
155.93;0.651855;35.8;180;9.11865e-05;10 mA;
156.13;0.654297;36;181;9.17358e-05;10 mA;
156.33;0.656738;36.2;182;9.15222e-05;10 mA;
156.53;0.65918;36.4;183;9.18274e-05;10 mA;
156.73;0.661621;36.6;184;9.18884e-05;10 mA;
156.93;0.6640625;36.8;185;9.24683e-05;10 mA;
157.13;0.666504;37;186;9.54285e-05;10 mA;
157.33;0.668945;37.2;187;9.34448e-05;10 mA;
157.53;0.671082;37.4;188;9.06067e-05;10 mA;
157.73;0.673523;37.6;189;9.16138e-05;10 mA;
157.93;0.675659;37.8;190;9.00269e-05;10 mA;
158.13;0.678101;38;191;9.3689e-05;10 mA;
158.33;0.680237;38.2;192;9.27124e-05;10 mA;
158.53;0.682678;38.4;193;9.25598e-05;10 mA;
158.73;0.684814;38.6;194;9.16443e-05;10 mA;
158.93;0.687256;38.8;195;9.40247e-05;10 mA;
159.13;0.689392;39;196;9.06372e-05;10 mA;
159.33;0.691833;39.2;197;9.42078e-05;10 mA;
159.53;0.69397;39.4;198;9.21326e-05;10 mA;
159.73;0.696411;39.6;199;9.16748e-05;10 mA;
159.93;0.698547;39.8;200;9.30481e-05;10 mA;
160.13;0.700989;40;201;9.03931e-05;10 mA;
160.33;0.70343;40.2;202;9.22546e-05;10 mA;
160.53;0.705566;40.4;203;9.35669e-05;10 mA;
160.73;0.708008;40.6;204;9.03931e-05;10 mA;
160.93;0.710144;40.8;205;9.24072e-05;10 mA;
161.13;0.71228;41;206;9.42383e-05;10 mA;
161.33;0.714417;41.2;207;9.31702e-05;10 mA;
161.53;0.716553;41.4;208;9.375e-05;10 mA;
161.73;0.718689;41.6;209;9.36584e-05;10 mA;
161.93;0.72113;41.8;210;9.21326e-05;10 mA;
162.13;0.723267;42;211;9.26819e-05;10 mA;
162.33;0.725403;42.2;212;9.3811e-05;10 mA;
162.53;0.727539;42.4;213;9.40552e-05;10 mA;
162.73;0.72998;42.6;214;9.2041e-05;10 mA;
162.93;0.732117;42.8;215;9.35364e-05;10 mA;
163.13;0.734253;43;216;9.10645e-05;10 mA;
163.33;0.736389;43.2;217;9.26819e-05;10 mA;
163.53;0.73822;43.4;218;9.35974e-05;10 mA;
163.73;0.740356;43.6;219;9.2865e-05;10 mA;
163.93;0.742493;43.8;220;9.28345e-05;10 mA;
164.13;0.744629;44;221;9.42383e-05;10 mA;
164.33;0.746765;44.2;222;9.09119e-05;10 mA;
164.53;0.748901;44.4;223;9.06982e-05;10 mA;
164.73;0.750732;44.6;224;9.33228e-05;10 mA;
164.93;0.752869;44.8;225;9.13086e-05;10 mA;
165.13;0.7547;45;226;9.08203e-05;10 mA;
165.33;0.756836;45.2;227;9.11865e-05;10 mA;
165.53;0.758667;45.4;228;9.25903e-05;10 mA;
165.73;0.760803;45.6;229;9.30786e-05;10 mA;
165.93;0.762634;45.8;230;9.39636e-05;10 mA;
166.13;0.764771;46;231;9.23157e-05;10 mA;
166.33;0.766602;46.2;232;9.13696e-05;10 mA;
166.53;0.768738;46.4;233;9.36279e-05;10 mA;
166.73;0.770569;46.6;234;9.23462e-05;10 mA;
166.93;0.7724;46.8;235;9.42688e-05;10 mA;
167.13;0.774536;47;236;9.39331e-05;10 mA;
167.33;0.776367;47.2;237;9.375e-05;10 mA;
167.53;0.778503;47.4;238;9.34448e-05;10 mA;
167.73;0.780334;47.6;239;9.24683e-05;10 mA;
167.93;0.782166;47.8;240;9.31702e-05;10 mA;
168.13;0.783997;48;241;9.40552e-05;10 mA;
168.33;0.785828;48.2;242;9.36584e-05;10 mA;
168.53;0.787659;48.4;243;9.08813e-05;10 mA;
168.73;0.789795;48.6;244;9.2041e-05;10 mA;
168.93;0.791321;48.8;245;9.26819e-05;10 mA;
169.13;0.793152;49;246;9.24683e-05;10 mA;
169.33;0.795288;49.2;247;9.33838e-05;10 mA;
169.53;0.796814;49.4;248;9.39941e-05;10 mA;
169.73;0.798645;49.6;249;9.20105e-05;10 mA;
169.93;0.800476;49.8;250;9.17969e-05;10 mA;
170.13;0.802002;50;251;9.22241e-05;10 mA;
170.33;0.803833;50.2;252;9.30176e-05;10 mA;
170.53;0.805664;50.4;253;9.24377e-05;10 mA;
170.73;0.80719;50.6;254;9.41772e-05;10 mA;
170.93;0.808716;50.8;255;9.18274e-05;10 mA;
171.13;0.810547;51;256;9.26819e-05;10 mA;
171.33;0.812378;51.2;257;9.3811e-05;10 mA;
171.53;0.813904;51.4;258;9.26514e-05;10 mA;
171.73;0.81543;51.6;259;9.31702e-05;10 mA;
171.93;0.816956;51.8;260;9.08508e-05;10 mA;
172.13;0.818481;52;261;9.33533e-05;10 mA;
172.33;0.8203125;52.2;262;9.32922e-05;10 mA;
172.53;0.821838;52.4;263;9.08508e-05;10 mA;
172.73;0.823364;52.6;264;9.27124e-05;10 mA;
172.93;0.825195;52.8;265;9.3689e-05;10 mA;
173.13;0.826721;53;266;9.26514e-05;10 mA;
173.33;0.828247;53.2;267;9.25903e-05;10 mA;
173.53;0.829773;53.4;268;9.0332e-05;10 mA;
173.73;0.831299;53.6;269;9.50928e-05;10 mA;
173.93;0.83252;53.8;270;9.30481e-05;10 mA;
174.13;0.834045;54;271;9.10034e-05;10 mA;
174.33;0.835571;54.2;272;9.18884e-05;10 mA;
174.53;0.837097;54.4;273;9.37805e-05;10 mA;
174.73;0.838623;54.6;274;8.99658e-05;10 mA;
174.93;0.839844;54.8;275;9.28955e-05;10 mA;
175.13;0.84137;55;276;9.3689e-05;10 mA;
175.33;0.842896;55.2;277;9.24072e-05;10 mA;
175.53;0.844116;55.4;278;9.41467e-05;10 mA;
175.73;0.845642;55.6;279;9.09119e-05;10 mA;
175.93;0.847168;55.8;280;9.37195e-05;10 mA;
176.13;0.848389;56;281;9.23157e-05;10 mA;
176.33;0.849609;56.2;282;9.24377e-05;10 mA;
176.53;0.851135;56.4;283;9.35364e-05;10 mA;WE(1).Potential > 0,85 V
176.73;0.852356;56.6;284;9.3689e-05;10 mA;WE(1).Potential > 0,85 V
176.93;0.853577;56.8;285;9.33533e-05;10 mA;WE(1).Potential > 0,85 V
177.13;0.854797;57;286;9.35669e-05;10 mA;WE(1).Potential > 0,85 V