File: Mxene1-1Ag-DESCARGA.txt
Time (s);WE(1).Potential (V);Corrected time (s);Index;WE(1).Current (A);Current range
401.786;0.657349;0;1;-2.19727e-06;10 mA
402.186;0.652771;0.4;3;-2.44141e-06;10 mA
402.586;0.649414;0.8;5;-2.34985e-06;10 mA
402.986;0.646667;1.2;7;-2.13623e-06;10 mA
403.386;0.644226;1.6;9;-2.44141e-06;10 mA
403.786;0.64209;2;11;-2.0752e-06;10 mA
404.186;0.639954;2.4;13;-2.50244e-06;10 mA
404.586;0.637817;2.8;15;-2.38037e-06;10 mA
404.986;0.635986;3.2;17;-2.41089e-06;10 mA
405.386;0.634155;3.6;19;-2.74658e-06;10 mA
405.786;0.632324;4;21;-2.53296e-06;10 mA
406.186;0.630798;4.4;23;-2.83813e-06;10 mA
406.586;0.629272;4.8;25;-2.47192e-06;10 mA
406.986;0.627441;5.2;27;-2.28882e-06;10 mA
407.386;0.625916;5.6;29;-2.50244e-06;10 mA
407.786;0.624695;6;31;-2.62451e-06;10 mA
408.186;0.623169;6.4;33;-2.47192e-06;10 mA
408.586;0.621643;6.8;35;-2.28882e-06;10 mA
408.986;0.620117;7.2;37;-2.50244e-06;10 mA
409.386;0.618591;7.6;39;-2.16675e-06;10 mA
409.786;0.617371;8;41;-2.34985e-06;10 mA
410.186;0.615845;8.4;43;-2.56348e-06;10 mA
410.586;0.614624;8.8;45;-2.19727e-06;10 mA
410.986;0.613403;9.2;47;-2.44141e-06;10 mA
411.386;0.611877;9.6;49;-2.31934e-06;10 mA
411.786;0.610657;10;51;-2.62451e-06;10 mA
412.186;0.609436;10.4;53;-2.62451e-06;10 mA
412.586;0.608215;10.8;55;-2.68555e-06;10 mA
412.986;0.606995;11.2;57;-2.50244e-06;10 mA
413.386;0.605774;11.6;59;-2.50244e-06;10 mA
413.786;0.604553;12;61;-2.28882e-06;10 mA
414.186;0.603333;12.4;63;-2.47192e-06;10 mA
414.586;0.602112;12.8;65;-2.56348e-06;10 mA
414.986;0.600891;13.2;67;-2.74658e-06;10 mA
415.386;0.59967;13.6;69;-2.47192e-06;10 mA
415.786;0.59845;14;71;-2.89917e-06;10 mA
416.186;0.597229;14.4;73;-2.28882e-06;10 mA
416.586;0.596313;14.8;75;-2.50244e-06;10 mA
416.986;0.595093;15.2;77;-2.65503e-06;10 mA
417.386;0.593872;15.6;79;-2.7771e-06;10 mA
417.786;0.592957;16;81;-2.92969e-06;10 mA
418.186;0.591736;16.4;83;-2.34985e-06;10 mA
418.586;0.59082;16.8;85;-2.38037e-06;10 mA
418.986;0.5896;17.2;87;-2.2583e-06;10 mA
419.386;0.588684;17.6;89;-2.53296e-06;10 mA
419.786;0.587463;18;91;-2.56348e-06;10 mA
420.186;0.586548;18.4;93;-2.50244e-06;10 mA
420.586;0.585632;18.8;95;-2.2583e-06;10 mA
420.986;0.584412;19.2;97;-2.41089e-06;10 mA
421.386;0.583496;19.6;99;-2.62451e-06;10 mA
421.786;0.582275;20;101;-2.28882e-06;10 mA
422.186;0.58136;20.4;103;-2.19727e-06;10 mA
422.586;0.580444;20.8;105;-2.47192e-06;10 mA
422.986;0.579224;21.2;107;-2.47192e-06;10 mA
423.386;0.578308;21.6;109;-2.16675e-06;10 mA
423.786;0.577393;22;111;-2.53296e-06;10 mA
424.186;0.576477;22.4;113;-2.34985e-06;10 mA
424.586;0.575562;22.8;115;-2.47192e-06;10 mA
424.986;0.574646;23.2;117;-2.31934e-06;10 mA
425.386;0.57373;23.6;119;-2.59399e-06;10 mA
425.786;0.572815;24;121;-2.71606e-06;10 mA
426.186;0.571899;24.4;123;-2.53296e-06;10 mA
426.586;0.570984;24.8;125;-2.22778e-06;10 mA
426.986;0.570068;25.2;127;-2.34985e-06;10 mA
427.386;0.569153;25.6;129;-2.47192e-06;10 mA
427.786;0.568237;26;131;-2.47192e-06;10 mA
428.186;0.567322;26.4;133;-2.62451e-06;10 mA
428.586;0.566406;26.8;135;-2.65503e-06;10 mA
428.986;0.565796;27.2;137;-2.47192e-06;10 mA
429.386;0.56488;27.6;139;-2.68555e-06;10 mA
429.786;0.563965;28;141;-2.13623e-06;10 mA
430.186;0.563049;28.4;143;-2.83813e-06;10 mA
430.586;0.562134;28.8;145;-2.44141e-06;10 mA
430.986;0.561218;29.2;147;-2.53296e-06;10 mA
431.386;0.560303;29.6;149;-2.31934e-06;10 mA
431.786;0.559387;30;151;-2.47192e-06;10 mA
432.186;0.558777;30.4;153;-2.53296e-06;10 mA
432.586;0.557861;30.8;155;-2.47192e-06;10 mA
432.986;0.556946;31.2;157;-2.56348e-06;10 mA
433.386;0.556335;31.6;159;-2.13623e-06;10 mA
433.786;0.55542;32;161;-2.38037e-06;10 mA
434.186;0.554504;32.4;163;-2.83813e-06;10 mA
434.586;0.553589;32.8;165;-2.71606e-06;10 mA
434.986;0.552979;33.2;167;-2.38037e-06;10 mA
435.386;0.552063;33.6;169;-2.68555e-06;10 mA
435.786;0.551147;34;171;-2.68555e-06;10 mA
436.186;0.550537;34.4;173;-2.89917e-06;10 mA
436.586;0.549622;34.8;175;-3.02124e-06;10 mA
436.986;0.548706;35.2;177;-2.62451e-06;10 mA
437.386;0.548096;35.6;179;-2.65503e-06;10 mA
437.786;0.54718;36;181;-2.68555e-06;10 mA
438.186;0.54657;36.4;183;-2.68555e-06;10 mA
438.586;0.545654;36.8;185;-2.59399e-06;10 mA
438.986;0.545044;37.2;187;-2.56348e-06;10 mA
439.386;0.544128;37.6;189;-2.92969e-06;10 mA
439.786;0.543518;38;191;-2.74658e-06;10 mA
440.186;0.542603;38.4;193;-2.65503e-06;10 mA
440.586;0.541687;38.8;195;-2.28882e-06;10 mA
440.986;0.541077;39.2;197;-2.53296e-06;10 mA
441.386;0.540161;39.6;199;-2.59399e-06;10 mA
441.786;0.539551;40;201;-2.65503e-06;10 mA
442.186;0.538635;40.4;203;-2.80762e-06;10 mA
442.586;0.538025;40.8;205;-2.53296e-06;10 mA
442.986;0.537109;41.2;207;-2.83813e-06;10 mA
443.386;0.536499;41.6;209;-2.92969e-06;10 mA
443.786;0.535583;42;211;-2.44141e-06;10 mA
444.186;0.534973;42.4;213;-2.44141e-06;10 mA
444.586;0.534058;42.8;215;-2.68555e-06;10 mA
444.986;0.533447;43.2;217;-2.86865e-06;10 mA
445.386;0.532837;43.6;219;-2.50244e-06;10 mA
445.786;0.531921;44;221;-2.34985e-06;10 mA
446.186;0.531311;44.4;223;-2.62451e-06;10 mA
446.586;0.530396;44.8;225;-2.80762e-06;10 mA
446.986;0.529785;45.2;227;-2.71606e-06;10 mA
447.386;0.529175;45.6;229;-2.92969e-06;10 mA
447.786;0.528259;46;231;-2.2583e-06;10 mA
448.186;0.527649;46.4;233;-2.50244e-06;10 mA
448.586;0.527039;46.8;235;-2.96021e-06;10 mA
448.986;0.526123;47.2;237;-2.53296e-06;10 mA
449.386;0.525513;47.6;239;-2.68555e-06;10 mA
449.786;0.524902;48;241;-3.05176e-06;10 mA
450.186;0.524292;48.4;243;-2.92969e-06;10 mA
450.586;0.523376;48.8;245;-2.47192e-06;10 mA
450.986;0.522766;49.2;247;-2.56348e-06;10 mA
451.386;0.522156;49.6;249;-2.89917e-06;10 mA
451.786;0.521545;50;251;-2.53296e-06;10 mA
452.186;0.520935;50.4;253;-2.80762e-06;10 mA
452.586;0.52002;50.8;255;-2.65503e-06;10 mA
452.986;0.519409;51.2;257;-2.68555e-06;10 mA
453.386;0.518799;51.6;259;-2.62451e-06;10 mA
453.786;0.518188;52;261;-2.83813e-06;10 mA
454.186;0.517578;52.4;263;-2.74658e-06;10 mA
454.586;0.516968;52.8;265;-2.28882e-06;10 mA
454.986;0.516357;53.2;267;-2.99072e-06;10 mA
455.386;0.515747;53.6;269;-2.74658e-06;10 mA
455.786;0.515137;54;271;-2.86865e-06;10 mA
456.186;0.514526;54.4;273;-2.59399e-06;10 mA
456.586;0.513916;54.8;275;-2.65503e-06;10 mA
456.986;0.513306;55.2;277;-2.80762e-06;10 mA
457.386;0.512695;55.6;279;-2.74658e-06;10 mA
457.786;0.512085;56;281;-2.68555e-06;10 mA
458.186;0.511475;56.4;283;-2.50244e-06;10 mA
458.586;0.510864;56.8;285;-2.65503e-06;10 mA
458.986;0.510254;57.2;287;-2.83813e-06;10 mA
459.386;0.509644;57.6;289;-2.56348e-06;10 mA
459.786;0.509033;58;291;-2.68555e-06;10 mA
460.186;0.508423;58.4;293;-2.31934e-06;10 mA
460.586;0.5078125;58.8;295;-2.50244e-06;10 mA
460.986;0.507202;59.2;297;-2.68555e-06;10 mA
461.386;0.506592;59.6;299;-2.28882e-06;10 mA
461.786;0.505981;60;301;-2.7771e-06;10 mA
462.186;0.505371;60.4;303;-2.86865e-06;10 mA
462.586;0.504761;60.8;305;-2.99072e-06;10 mA
462.986;0.50415;61.2;307;-2.68555e-06;10 mA
463.386;0.50354;61.6;309;-2.74658e-06;10 mA
463.786;0.503235;62;311;-2.80762e-06;10 mA
464.186;0.502625;62.4;313;-2.56348e-06;10 mA
464.586;0.502014;62.8;315;-2.96021e-06;10 mA
464.986;0.501404;63.2;317;-2.50244e-06;10 mA
465.386;0.500793;63.6;319;-2.59399e-06;10 mA
465.786;0.500183;64;321;-2.96021e-06;10 mA
466.186;0.499756;64.4;323;-2.80762e-06;10 mA
466.586;0.499207;64.8;325;-2.99072e-06;10 mA
466.986;0.498657;65.2;327;-2.44141e-06;10 mA
467.386;0.498108;65.6;329;-2.59399e-06;10 mA
467.786;0.497528;66;331;-2.68555e-06;10 mA
468.186;0.496948;66.4;333;-2.80762e-06;10 mA
468.586;0.496368;66.8;335;-2.68555e-06;10 mA
468.986;0.495789;67.2;337;-2.44141e-06;10 mA
469.386;0.495239;67.6;339;-2.44141e-06;10 mA
469.786;0.494659;68;341;-2.62451e-06;10 mA
470.186;0.49411;68.4;343;-2.62451e-06;10 mA
470.586;0.49353;68.8;345;-2.99072e-06;10 mA
470.986;0.492981;69.2;347;-2.68555e-06;10 mA
471.386;0.492401;69.6;349;-2.74658e-06;10 mA
471.786;0.491852;70;351;-2.50244e-06;10 mA
472.186;0.491302;70.4;353;-2.71606e-06;10 mA
472.586;0.490753;70.8;355;-2.74658e-06;10 mA
472.986;0.490234;71.2;357;-2.83813e-06;10 mA
473.386;0.489685;71.6;359;-2.74658e-06;10 mA
473.786;0.489105;72;361;-2.56348e-06;10 mA
474.186;0.488556;72.4;363;-2.74658e-06;10 mA
474.586;0.488037;72.8;365;-2.59399e-06;10 mA
474.986;0.487488;73.2;367;-2.50244e-06;10 mA
475.386;0.486969;73.6;369;-2.34985e-06;10 mA
475.786;0.48642;74;371;-2.83813e-06;10 mA
476.186;0.485931;74.4;373;-2.53296e-06;10 mA
476.586;0.485474;74.8;375;-2.68555e-06;10 mA
476.986;0.484924;75.2;377;-2.65503e-06;10 mA
477.386;0.484436;75.6;379;-2.74658e-06;10 mA
477.786;0.483948;76;381;-2.7771e-06;10 mA
478.186;0.483459;76.4;383;-2.74658e-06;10 mA
478.586;0.48291;76.8;385;-2.59399e-06;10 mA
478.986;0.482422;77.2;387;-2.74658e-06;10 mA
479.386;0.481903;77.6;389;-2.92969e-06;10 mA
479.786;0.481415;78;391;-2.59399e-06;10 mA
480.186;0.480896;78.4;393;-2.59399e-06;10 mA
480.586;0.480438;78.8;395;-2.7771e-06;10 mA
480.986;0.479919;79.2;397;-2.99072e-06;10 mA
481.386;0.479401;79.6;399;-2.56348e-06;10 mA
481.786;0.478943;80;401;-2.7771e-06;10 mA
482.186;0.478485;80.4;403;-2.7771e-06;10 mA
482.586;0.478027;80.8;405;-2.86865e-06;10 mA
482.986;0.47757;81.2;407;-2.71606e-06;10 mA
483.386;0.477081;81.6;409;-2.86865e-06;10 mA
483.786;0.476593;82;411;-2.44141e-06;10 mA
484.186;0.476105;82.4;413;-3.11279e-06;10 mA
484.586;0.475616;82.8;415;-2.99072e-06;10 mA
484.986;0.475159;83.2;417;-2.96021e-06;10 mA
485.386;0.474701;83.6;419;-2.59399e-06;10 mA
485.786;0.474243;84;421;-2.50244e-06;10 mA
486.186;0.473755;84.4;423;-2.74658e-06;10 mA
486.586;0.473328;84.8;425;-2.59399e-06;10 mA
486.986;0.472839;85.2;427;-2.80762e-06;10 mA
487.386;0.472351;85.6;429;-2.92969e-06;10 mA
487.786;0.471893;86;431;-2.65503e-06;10 mA
488.186;0.471375;86.4;433;-2.92969e-06;10 mA
488.586;0.470917;86.8;435;-2.68555e-06;10 mA
488.986;0.470428;87.2;437;-2.96021e-06;10 mA
489.386;0.469971;87.6;439;-2.74658e-06;10 mA
489.786;0.469543;88;441;-2.96021e-06;10 mA
490.186;0.469086;88.4;443;-2.65503e-06;10 mA
490.586;0.468628;88.8;445;-2.74658e-06;10 mA
490.986;0.468109;89.2;447;-2.83813e-06;10 mA
491.386;0.467651;89.6;449;-2.74658e-06;10 mA
491.786;0.467194;90;451;-2.56348e-06;10 mA
492.186;0.466766;90.4;453;-2.86865e-06;10 mA
492.586;0.466309;90.8;455;-2.56348e-06;10 mA
492.986;0.465881;91.2;457;-3.08228e-06;10 mA
493.386;0.465454;91.6;459;-2.92969e-06;10 mA
493.786;0.464996;92;461;-2.59399e-06;10 mA
494.186;0.464539;92.4;463;-2.56348e-06;10 mA
494.586;0.464111;92.8;465;-3.05176e-06;10 mA
494.986;0.463684;93.2;467;-2.89917e-06;10 mA
495.386;0.463257;93.6;469;-3.17383e-06;10 mA
495.786;0.46283;94;471;-2.92969e-06;10 mA
496.186;0.462372;94.4;473;-2.68555e-06;10 mA
496.586;0.461945;94.8;475;-2.71606e-06;10 mA
496.986;0.461487;95.2;477;-2.68555e-06;10 mA
497.386;0.461029;95.6;479;-3.02124e-06;10 mA
497.786;0.460602;96;481;-2.68555e-06;10 mA
498.186;0.460175;96.4;483;-2.7771e-06;10 mA
498.586;0.459717;96.8;485;-3.05176e-06;10 mA
498.986;0.45929;97.2;487;-2.7771e-06;10 mA
499.386;0.458832;97.6;489;-2.92969e-06;10 mA
499.786;0.458405;98;491;-2.68555e-06;10 mA
500.186;0.458008;98.4;493;-2.50244e-06;10 mA
500.586;0.457581;98.8;495;-3.08228e-06;10 mA
500.986;0.457153;99.2;497;-2.86865e-06;10 mA
501.386;0.456696;99.6;499;-2.89917e-06;10 mA
501.786;0.456268;100;501;-2.74658e-06;10 mA
502.186;0.455902;100.4;503;-2.53296e-06;10 mA
502.586;0.455475;100.8;505;-2.59399e-06;10 mA
502.986;0.455078;101.2;507;-2.68555e-06;10 mA
503.386;0.454681;101.6;509;-2.62451e-06;10 mA
503.786;0.454254;102;511;-2.34985e-06;10 mA
504.186;0.453888;102.4;513;-3.05176e-06;10 mA
504.586;0.453491;102.8;515;-3.02124e-06;10 mA
504.986;0.453094;103.2;517;-2.74658e-06;10 mA
505.386;0.452728;103.6;519;-2.68555e-06;10 mA
505.786;0.452332;104;521;-2.62451e-06;10 mA
506.186;0.451904;104.4;523;-2.96021e-06;10 mA
506.586;0.451508;104.8;525;-2.96021e-06;10 mA
506.986;0.451141;105.2;527;-3.17383e-06;10 mA
507.386;0.450714;105.6;529;-2.7771e-06;10 mA
507.786;0.450317;106;531;-2.7771e-06;10 mA
508.186;0.44989;106.4;533;-3.05176e-06;10 mA
508.586;0.449524;106.8;535;-2.22778e-06;10 mA
508.986;0.449127;107.2;537;-2.83813e-06;10 mA
509.386;0.448761;107.6;539;-2.38037e-06;10 mA
509.786;0.448395;108;541;-2.92969e-06;10 mA
510.186;0.447998;108.4;543;-2.68555e-06;10 mA
510.586;0.447632;108.8;545;-2.71606e-06;10 mA
510.986;0.447235;109.2;547;-2.92969e-06;10 mA
511.386;0.446869;109.6;549;-2.83813e-06;10 mA
511.786;0.446503;110;551;-2.83813e-06;10 mA
512.186;0.446106;110.4;553;-2.80762e-06;10 mA
512.586;0.44577;110.8;555;-2.74658e-06;10 mA
512.986;0.445404;111.2;557;-2.65503e-06;10 mA
513.386;0.445007;111.6;559;-2.99072e-06;10 mA
513.786;0.444641;112;561;-3.11279e-06;10 mA
514.186;0.444275;112.4;563;-2.62451e-06;10 mA
514.586;0.443909;112.8;565;-3.17383e-06;10 mA
514.986;0.443512;113.2;567;-2.80762e-06;10 mA
515.386;0.443146;113.6;569;-3.02124e-06;10 mA
515.786;0.44278;114;571;-3.02124e-06;10 mA
516.186;0.442383;114.4;573;-2.80762e-06;10 mA
516.586;0.442017;114.8;575;-2.80762e-06;10 mA
516.986;0.441681;115.2;577;-2.53296e-06;10 mA
517.386;0.441284;115.6;579;-2.71606e-06;10 mA
517.786;0.440948;116;581;-2.96021e-06;10 mA
518.186;0.440552;116.4;583;-2.92969e-06;10 mA
518.586;0.440155;116.8;585;-2.68555e-06;10 mA
518.986;0.439758;117.2;587;-2.99072e-06;10 mA
519.386;0.439453;117.6;589;-2.53296e-06;10 mA
519.786;0.439087;118;591;-2.86865e-06;10 mA
520.186;0.438721;118.4;593;-2.71606e-06;10 mA
520.586;0.438354;118.8;595;-2.71606e-06;10 mA
520.986;0.437958;119.2;597;-2.83813e-06;10 mA
521.386;0.437592;119.6;599;-2.53296e-06;10 mA
521.786;0.437225;120;601;-2.65503e-06;10 mA
522.186;0.436829;120.4;603;-2.83813e-06;10 mA
522.586;0.436432;120.8;605;-2.7771e-06;10 mA
522.986;0.436096;121.2;607;-3.11279e-06;10 mA
523.386;0.43573;121.6;609;-2.71606e-06;10 mA
523.786;0.435333;122;611;-2.7771e-06;10 mA
524.186;0.434967;122.4;613;-2.71606e-06;10 mA
524.586;0.434631;122.8;615;-2.71606e-06;10 mA
524.986;0.434235;123.2;617;-2.83813e-06;10 mA
525.386;0.433868;123.6;619;-2.7771e-06;10 mA
525.786;0.433533;124;621;-3.20435e-06;10 mA
526.186;0.433167;124.4;623;-3.11279e-06;10 mA
526.586;0.4328;124.8;625;-3.11279e-06;10 mA
526.986;0.432465;125.2;627;-2.74658e-06;10 mA
527.386;0.432098;125.6;629;-2.68555e-06;10 mA
527.786;0.431732;126;631;-2.92969e-06;10 mA
528.186;0.431396;126.4;633;-2.83813e-06;10 mA
528.586;0.431061;126.8;635;-2.83813e-06;10 mA
528.986;0.430725;127.2;637;-3.11279e-06;10 mA
529.386;0.430389;127.6;639;-3.02124e-06;10 mA
529.786;0.430023;128;641;-2.92969e-06;10 mA
530.186;0.4296875;128.4;643;-2.96021e-06;10 mA
530.586;0.429352;128.8;645;-2.53296e-06;10 mA
530.986;0.429016;129.2;647;-3.14331e-06;10 mA
531.386;0.42868;129.6;649;-3.23486e-06;10 mA
531.786;0.428345;130;651;-2.89917e-06;10 mA
532.186;0.427948;130.4;653;-2.83813e-06;10 mA
532.586;0.427612;130.8;655;-2.99072e-06;10 mA
532.986;0.427246;131.2;657;-2.68555e-06;10 mA
533.386;0.42691;131.6;659;-2.92969e-06;10 mA
533.786;0.426544;132;661;-2.83813e-06;10 mA
534.186;0.426239;132.4;663;-2.99072e-06;10 mA
534.586;0.425873;132.8;665;-2.71606e-06;10 mA
534.986;0.425537;133.2;667;-3.02124e-06;10 mA
535.386;0.425232;133.6;669;-2.71606e-06;10 mA
535.786;0.424896;134;671;-2.83813e-06;10 mA
536.186;0.424591;134.4;673;-2.83813e-06;10 mA
536.586;0.424255;134.8;675;-2.99072e-06;10 mA
536.986;0.42392;135.2;677;-2.96021e-06;10 mA
537.386;0.423584;135.6;679;-2.86865e-06;10 mA
537.786;0.423279;136;681;-3.02124e-06;10 mA
538.186;0.422943;136.4;683;-2.96021e-06;10 mA
538.586;0.422638;136.8;685;-2.80762e-06;10 mA
538.986;0.422302;137.2;687;-2.44141e-06;10 mA
539.386;0.422028;137.6;689;-2.92969e-06;10 mA
539.786;0.421722;138;691;-2.80762e-06;10 mA
540.186;0.421387;138.4;693;-2.86865e-06;10 mA
540.586;0.421051;138.8;695;-2.92969e-06;10 mA
540.986;0.420715;139.2;697;-2.86865e-06;10 mA
541.386;0.42041;139.6;699;-3.38745e-06;10 mA
541.786;0.420074;140;701;-2.50244e-06;10 mA
542.186;0.419769;140.4;703;-3.17383e-06;10 mA
542.586;0.419434;140.8;705;-2.96021e-06;10 mA
542.986;0.419128;141.2;707;-2.99072e-06;10 mA
543.386;0.418823;141.6;709;-3.02124e-06;10 mA
543.786;0.418549;142;711;-3.23486e-06;10 mA
544.186;0.418243;142.4;713;-2.86865e-06;10 mA
544.586;0.417938;142.8;715;-2.89917e-06;10 mA
544.986;0.417633;143.2;717;-2.68555e-06;10 mA
545.386;0.417328;143.6;719;-2.89917e-06;10 mA
545.786;0.417023;144;721;-2.68555e-06;10 mA
546.186;0.416687;144.4;723;-2.86865e-06;10 mA
546.586;0.416382;144.8;725;-2.83813e-06;10 mA
546.986;0.416077;145.2;727;-2.99072e-06;10 mA
547.386;0.415741;145.6;729;-3.02124e-06;10 mA
547.786;0.415436;146;731;-2.71606e-06;10 mA
548.186;0.415131;146.4;733;-2.80762e-06;10 mA
548.586;0.414795;146.8;735;-2.7771e-06;10 mA
548.986;0.41452;147.2;737;-2.99072e-06;10 mA
549.386;0.414215;147.6;739;-2.71606e-06;10 mA
549.786;0.41391;148;741;-3.05176e-06;10 mA
550.186;0.413605;148.4;743;-2.99072e-06;10 mA
550.586;0.4133;148.8;745;-2.96021e-06;10 mA
550.986;0.413025;149.2;747;-2.74658e-06;10 mA
551.386;0.41272;149.6;749;-2.80762e-06;10 mA
551.786;0.412445;150;751;-2.86865e-06;10 mA
552.186;0.41214;150.4;753;-2.89917e-06;10 mA
552.586;0.411835;150.8;755;-3.05176e-06;10 mA
552.986;0.41153;151.2;757;-2.99072e-06;10 mA
553.386;0.411255;151.6;759;-3.20435e-06;10 mA
553.786;0.41095;152;761;-3.32642e-06;10 mA
554.186;0.410645;152.4;763;-3.08228e-06;10 mA
554.586;0.410339;152.8;765;-2.92969e-06;10 mA
554.986;0.410065;153.2;767;-2.99072e-06;10 mA
555.386;0.40976;153.6;769;-3.32642e-06;10 mA
555.786;0.409454;154;771;-2.92969e-06;10 mA
556.186;0.40918;154.4;773;-2.80762e-06;10 mA
556.586;0.408905;154.8;775;-3.44849e-06;10 mA
556.986;0.4086;155.2;777;-2.65503e-06;10 mA
557.386;0.408295;155.6;779;-2.83813e-06;10 mA
557.786;0.40802;156;781;-2.7771e-06;10 mA
558.186;0.407715;156.4;783;-2.83813e-06;10 mA
558.586;0.40744;156.8;785;-3.26538e-06;10 mA
558.986;0.407166;157.2;787;-2.99072e-06;10 mA
559.386;0.40686;157.6;789;-2.92969e-06;10 mA
559.786;0.406555;158;791;-2.7771e-06;10 mA
560.186;0.406281;158.4;793;-2.7771e-06;10 mA
560.586;0.406036;158.8;795;-2.68555e-06;10 mA
560.986;0.405762;159.2;797;-2.7771e-06;10 mA
561.386;0.405457;159.6;799;-2.38037e-06;10 mA
561.786;0.405151;160;801;-3.20435e-06;10 mA
562.186;0.404846;160.4;803;-3.17383e-06;10 mA
562.586;0.404602;160.8;805;-3.05176e-06;10 mA
562.986;0.404297;161.2;807;-3.05176e-06;10 mA
563.386;0.404022;161.6;809;-3.17383e-06;10 mA
563.786;0.403717;162;811;-2.59399e-06;10 mA
564.186;0.403442;162.4;813;-2.7771e-06;10 mA
564.586;0.403168;162.8;815;-2.68555e-06;10 mA
564.986;0.402924;163.2;817;-2.71606e-06;10 mA
565.386;0.402649;163.6;819;-2.53296e-06;10 mA
565.786;0.402374;164;821;-3.08228e-06;10 mA
566.186;0.4021;164.4;823;-2.80762e-06;10 mA
566.586;0.401855;164.8;825;-2.86865e-06;10 mA
566.986;0.40155;165.2;827;-2.83813e-06;10 mA
567.386;0.401306;165.6;829;-2.86865e-06;10 mA
567.786;0.401031;166;831;-2.83813e-06;10 mA
568.186;0.400787;166.4;833;-3.02124e-06;10 mA
568.586;0.400482;166.8;835;-2.62451e-06;10 mA
568.986;0.400208;167.2;837;-2.99072e-06;10 mA
569.386;0.399933;167.6;839;-2.86865e-06;10 mA
569.786;0.399689;168;841;-3.32642e-06;10 mA
570.186;0.399414;168.4;843;-2.99072e-06;10 mA
570.586;0.39917;168.8;845;-2.80762e-06;10 mA
570.986;0.398926;169.2;847;-2.92969e-06;10 mA
571.386;0.398682;169.6;849;-2.80762e-06;10 mA
571.786;0.398407;170;851;-2.83813e-06;10 mA
572.186;0.398132;170.4;853;-2.99072e-06;10 mA
572.586;0.397888;170.8;855;-2.89917e-06;10 mA
572.986;0.397644;171.2;857;-2.74658e-06;10 mA
573.386;0.397369;171.6;859;-2.99072e-06;10 mA
573.786;0.397095;172;861;-2.71606e-06;10 mA
574.186;0.39682;172.4;863;-3.05176e-06;10 mA
574.586;0.396576;172.8;865;-2.99072e-06;10 mA
574.986;0.396362;173.2;867;-3.11279e-06;10 mA
575.386;0.396057;173.6;869;-2.80762e-06;10 mA
575.786;0.395813;174;871;-2.96021e-06;10 mA
576.186;0.395599;174.4;873;-2.68555e-06;10 mA
576.586;0.395325;174.8;875;-2.50244e-06;10 mA
576.986;0.395081;175.2;877;-2.34985e-06;10 mA
577.386;0.394836;175.6;879;-2.80762e-06;10 mA
577.786;0.394623;176;881;-2.50244e-06;10 mA
578.186;0.394348;176.4;883;-2.92969e-06;10 mA
578.586;0.394104;176.8;885;-2.59399e-06;10 mA
578.986;0.39386;177.2;887;-2.89917e-06;10 mA
579.386;0.393616;177.6;889;-2.89917e-06;10 mA
579.786;0.393341;178;891;-2.89917e-06;10 mA
580.186;0.393097;178.4;893;-2.7771e-06;10 mA
580.586;0.392853;178.8;895;-3.32642e-06;10 mA
580.986;0.392609;179.2;897;-2.86865e-06;10 mA
581.386;0.392365;179.6;899;-2.86865e-06;10 mA
581.786;0.39212;180;901;-2.96021e-06;10 mA
582.186;0.391876;180.4;903;-3.20435e-06;10 mA
582.586;0.391632;180.8;905;-2.86865e-06;10 mA
582.986;0.391388;181.2;907;-2.74658e-06;10 mA
583.386;0.391144;181.6;909;-2.83813e-06;10 mA
583.786;0.3909;182;911;-2.71606e-06;10 mA
584.186;0.390656;182.4;913;-2.92969e-06;10 mA
584.586;0.390442;182.8;915;-2.86865e-06;10 mA
584.986;0.390198;183.2;917;-2.65503e-06;10 mA
585.386;0.389954;183.6;919;-3.14331e-06;10 mA
585.786;0.389709;184;921;-2.92969e-06;10 mA
586.186;0.389465;184.4;923;-3.11279e-06;10 mA
586.586;0.389221;184.8;925;-3.11279e-06;10 mA
586.986;0.388977;185.2;927;-2.86865e-06;10 mA
587.386;0.388733;185.6;929;-2.96021e-06;10 mA
587.786;0.388489;186;931;-2.68555e-06;10 mA
588.186;0.388275;186.4;933;-3.17383e-06;10 mA
588.586;0.388031;186.8;935;-2.80762e-06;10 mA
588.986;0.387787;187.2;937;-2.71606e-06;10 mA
589.386;0.387543;187.6;939;-2.92969e-06;10 mA
589.786;0.387299;188;941;-3.26538e-06;10 mA
590.186;0.387085;188.4;943;-3.05176e-06;10 mA
590.586;0.386841;188.8;945;-2.31934e-06;10 mA
590.986;0.386597;189.2;947;-2.80762e-06;10 mA
591.386;0.386353;189.6;949;-3.05176e-06;10 mA
591.786;0.386078;190;951;-3.14331e-06;10 mA
592.186;0.385864;190.4;953;-2.96021e-06;10 mA
592.586;0.38559;190.8;955;-2.80762e-06;10 mA
592.986;0.385315;191.2;957;-2.99072e-06;10 mA
593.386;0.385071;191.6;959;-2.92969e-06;10 mA
593.786;0.384827;192;961;-2.92969e-06;10 mA
594.186;0.384644;192.4;963;-2.86865e-06;10 mA
594.586;0.384399;192.8;965;-3.23486e-06;10 mA
594.986;0.384155;193.2;967;-3.05176e-06;10 mA
595.386;0.383911;193.6;969;-2.7771e-06;10 mA
595.786;0.383667;194;971;-2.99072e-06;10 mA
596.186;0.383423;194.4;973;-3.2959e-06;10 mA
596.586;0.383209;194.8;975;-3.26538e-06;10 mA
596.986;0.382935;195.2;977;-2.80762e-06;10 mA
597.386;0.38269;195.6;979;-2.74658e-06;10 mA
597.786;0.382446;196;981;-2.80762e-06;10 mA
598.186;0.382233;196.4;983;-2.92969e-06;10 mA
598.586;0.382019;196.8;985;-2.83813e-06;10 mA
598.986;0.381805;197.2;987;-3.02124e-06;10 mA
599.386;0.381561;197.6;989;-2.65503e-06;10 mA
599.786;0.381317;198;991;-2.86865e-06;10 mA
600.186;0.381104;198.4;993;-3.2959e-06;10 mA
600.586;0.380859;198.8;995;-2.53296e-06;10 mA
600.986;0.380615;199.2;997;-2.68555e-06;10 mA
601.386;0.380341;199.6;999;-3.08228e-06;10 mA
601.786;0.380127;200;1001;-2.65503e-06;10 mA
602.186;0.379883;200.4;1003;-2.80762e-06;10 mA
602.586;0.379669;200.8;1005;-2.80762e-06;10 mA
602.986;0.379425;201.2;1007;-2.96021e-06;10 mA
603.386;0.379181;201.6;1009;-2.89917e-06;10 mA
603.786;0.378937;202;1011;-2.71606e-06;10 mA
604.186;0.378693;202.4;1013;-2.86865e-06;10 mA
604.586;0.378448;202.8;1015;-2.96021e-06;10 mA
604.986;0.378174;203.2;1017;-3.41797e-06;10 mA
605.386;0.37796;203.6;1019;-3.20435e-06;10 mA
605.786;0.377747;204;1021;-2.74658e-06;10 mA
606.186;0.377502;204.4;1023;-2.92969e-06;10 mA
606.586;0.377319;204.8;1025;-2.99072e-06;10 mA
606.986;0.377106;205.2;1027;-2.86865e-06;10 mA
607.386;0.376862;205.6;1029;-3.05176e-06;10 mA
607.786;0.376617;206;1031;-3.08228e-06;10 mA
608.186;0.376434;206.4;1033;-2.74658e-06;10 mA
608.586;0.376221;206.8;1035;-2.83813e-06;10 mA
608.986;0.376038;207.2;1037;-2.68555e-06;10 mA
609.386;0.375793;207.6;1039;-2.92969e-06;10 mA
609.786;0.37558;208;1041;-2.83813e-06;10 mA
610.186;0.375397;208.4;1043;-2.83813e-06;10 mA
610.586;0.375183;208.8;1045;-2.92969e-06;10 mA
610.986;0.374969;209.2;1047;-2.7771e-06;10 mA
611.386;0.374756;209.6;1049;-3.05176e-06;10 mA
611.786;0.374542;210;1051;-2.59399e-06;10 mA
612.186;0.374298;210.4;1053;-3.20435e-06;10 mA
612.586;0.374084;210.8;1055;-2.53296e-06;10 mA
612.986;0.37384;211.2;1057;-3.02124e-06;10 mA
613.386;0.373596;211.6;1059;-2.96021e-06;10 mA
613.786;0.373383;212;1061;-3.17383e-06;10 mA
614.186;0.373199;212.4;1063;-3.14331e-06;10 mA
614.586;0.373016;212.8;1065;-2.7771e-06;10 mA
614.986;0.372803;213.2;1067;-2.7771e-06;10 mA
615.386;0.372589;213.6;1069;-2.80762e-06;10 mA
615.786;0.372375;214;1071;-2.71606e-06;10 mA
616.186;0.372131;214.4;1073;-2.83813e-06;10 mA
616.586;0.371918;214.8;1075;-3.17383e-06;10 mA
616.986;0.371704;215.2;1077;-2.74658e-06;10 mA
617.386;0.37149;215.6;1079;-3.2959e-06;10 mA
617.786;0.371307;216;1081;-2.89917e-06;10 mA
618.186;0.371094;216.4;1083;-2.99072e-06;10 mA
618.586;0.37088;216.8;1085;-3.14331e-06;10 mA
618.986;0.370667;217.2;1087;-2.74658e-06;10 mA
619.386;0.370453;217.6;1089;-2.74658e-06;10 mA
619.786;0.37027;218;1091;-2.99072e-06;10 mA
620.186;0.370026;218.4;1093;-2.86865e-06;10 mA
620.586;0.369812;218.8;1095;-2.92969e-06;10 mA
620.986;0.369629;219.2;1097;-2.96021e-06;10 mA
621.386;0.369385;219.6;1099;-3.05176e-06;10 mA
621.786;0.369171;220;1101;-2.92969e-06;10 mA
622.186;0.368958;220.4;1103;-2.92969e-06;10 mA
622.586;0.368774;220.8;1105;-2.7771e-06;10 mA
622.986;0.368561;221.2;1107;-2.7771e-06;10 mA
623.386;0.368347;221.6;1109;-2.86865e-06;10 mA
623.786;0.368134;222;1111;-2.83813e-06;10 mA
624.186;0.36792;222.4;1113;-2.7771e-06;10 mA
624.586;0.367737;222.8;1115;-2.7771e-06;10 mA
624.986;0.367523;223.2;1117;-2.7771e-06;10 mA
625.386;0.36731;223.6;1119;-2.89917e-06;10 mA
625.786;0.367126;224;1121;-2.68555e-06;10 mA
626.186;0.366913;224.4;1123;-2.96021e-06;10 mA
626.586;0.366699;224.8;1125;-3.17383e-06;10 mA
626.986;0.366486;225.2;1127;-3.23486e-06;10 mA
627.386;0.366272;225.6;1129;-2.83813e-06;10 mA
627.786;0.366058;226;1131;-2.74658e-06;10 mA
628.186;0.365875;226.4;1133;-3.23486e-06;10 mA
628.586;0.365631;226.8;1135;-3.02124e-06;10 mA
628.986;0.365417;227.2;1137;-2.96021e-06;10 mA
629.386;0.365204;227.6;1139;-2.7771e-06;10 mA
629.786;0.365021;228;1141;-2.56348e-06;10 mA
630.186;0.364807;228.4;1143;-3.02124e-06;10 mA
630.586;0.364594;228.8;1145;-2.96021e-06;10 mA
630.986;0.36441;229.2;1147;-2.7771e-06;10 mA
631.386;0.364197;229.6;1149;-2.53296e-06;10 mA
631.786;0.363953;230;1151;-2.71606e-06;10 mA
632.186;0.36377;230.4;1153;-2.7771e-06;10 mA
632.586;0.363586;230.8;1155;-2.80762e-06;10 mA
632.986;0.363373;231.2;1157;-2.7771e-06;10 mA
633.386;0.363159;231.6;1159;-3.26538e-06;10 mA
633.786;0.362946;232;1161;-3.17383e-06;10 mA
634.186;0.362732;232.4;1163;-2.92969e-06;10 mA
634.586;0.362518;232.8;1165;-3.26538e-06;10 mA
634.986;0.362335;233.2;1167;-2.92969e-06;10 mA
635.386;0.362091;233.6;1169;-2.92969e-06;10 mA
635.786;0.361908;234;1171;-2.86865e-06;10 mA
636.186;0.361694;234.4;1173;-3.17383e-06;10 mA
636.586;0.361511;234.8;1175;-2.68555e-06;10 mA
636.986;0.361298;235.2;1177;-3.05176e-06;10 mA
637.386;0.361115;235.6;1179;-2.96021e-06;10 mA
637.786;0.360901;236;1181;-2.99072e-06;10 mA
638.186;0.360687;236.4;1183;-2.83813e-06;10 mA
638.586;0.360443;236.8;1185;-2.83813e-06;10 mA
638.986;0.36026;237.2;1187;-2.92969e-06;10 mA
639.386;0.360046;237.6;1189;-3.32642e-06;10 mA
639.786;0.359802;238;1191;-3.26538e-06;10 mA
640.186;0.359619;238.4;1193;-2.92969e-06;10 mA
640.586;0.359436;238.8;1195;-3.05176e-06;10 mA
640.986;0.359222;239.2;1197;-3.05176e-06;10 mA
641.386;0.359039;239.6;1199;-2.96021e-06;10 mA
641.786;0.358826;240;1201;-2.92969e-06;10 mA
642.186;0.358643;240.4;1203;-3.17383e-06;10 mA
642.586;0.358459;240.8;1205;-2.92969e-06;10 mA
642.986;0.358246;241.2;1207;-3.23486e-06;10 mA
643.386;0.358063;241.6;1209;-2.68555e-06;10 mA
643.786;0.357849;242;1211;-2.89917e-06;10 mA
644.186;0.357666;242.4;1213;-2.80762e-06;10 mA
644.586;0.357452;242.8;1215;-2.89917e-06;10 mA
644.986;0.357269;243.2;1217;-2.92969e-06;10 mA
645.386;0.357086;243.6;1219;-2.86865e-06;10 mA
645.786;0.356903;244;1221;-2.74658e-06;10 mA
646.186;0.35672;244.4;1223;-3.05176e-06;10 mA
646.586;0.356537;244.8;1225;-2.62451e-06;10 mA
646.986;0.356323;245.2;1227;-2.71606e-06;10 mA
647.386;0.35614;245.6;1229;-3.11279e-06;10 mA
647.786;0.355927;246;1231;-2.86865e-06;10 mA
648.186;0.355713;246.4;1233;-2.80762e-06;10 mA
648.586;0.35553;246.8;1235;-3.08228e-06;10 mA
648.986;0.355377;247.2;1237;-3.08228e-06;10 mA
649.386;0.355194;247.6;1239;-3.02124e-06;10 mA
649.786;0.355011;248;1241;-2.92969e-06;10 mA
650.186;0.354828;248.4;1243;-2.89917e-06;10 mA
650.586;0.354645;248.8;1245;-3.17383e-06;10 mA
650.986;0.354462;249.2;1247;-3.2959e-06;10 mA
651.386;0.354279;249.6;1249;-2.68555e-06;10 mA
651.786;0.354065;250;1251;-2.89917e-06;10 mA
652.186;0.353912;250.4;1253;-2.86865e-06;10 mA
652.586;0.353729;250.8;1255;-2.62451e-06;10 mA
652.986;0.353577;251.2;1257;-3.23486e-06;10 mA
653.386;0.353394;251.6;1259;-2.71606e-06;10 mA
653.786;0.35321;252;1261;-3.08228e-06;10 mA
654.186;0.353058;252.4;1263;-3.02124e-06;10 mA
654.586;0.352875;252.8;1265;-2.86865e-06;10 mA
654.986;0.352722;253.2;1267;-2.56348e-06;10 mA
655.386;0.352509;253.6;1269;-2.99072e-06;10 mA
655.786;0.352325;254;1271;-3.32642e-06;10 mA
656.186;0.352142;254.4;1273;-3.08228e-06;10 mA
656.586;0.35199;254.8;1275;-2.92969e-06;10 mA
656.986;0.351807;255.2;1277;-2.92969e-06;10 mA
657.386;0.351654;255.6;1279;-2.65503e-06;10 mA
657.786;0.351471;256;1281;-3.08228e-06;10 mA
658.186;0.351288;256.4;1283;-2.92969e-06;10 mA
658.586;0.351105;256.8;1285;-2.92969e-06;10 mA
658.986;0.350891;257.2;1287;-3.14331e-06;10 mA
659.386;0.350708;257.6;1289;-2.86865e-06;10 mA
659.786;0.350555;258;1291;-2.86865e-06;10 mA
660.186;0.350342;258.4;1293;-2.83813e-06;10 mA
660.586;0.350159;258.8;1295;-2.96021e-06;10 mA
660.986;0.350006;259.2;1297;-3.02124e-06;10 mA
661.386;0.349823;259.6;1299;-3.14331e-06;10 mA
661.786;0.349609;260;1301;-3.20435e-06;10 mA
662.186;0.349426;260.4;1303;-3.08228e-06;10 mA
662.586;0.349243;260.8;1305;-2.99072e-06;10 mA
662.986;0.349091;261.2;1307;-2.7771e-06;10 mA
663.386;0.348877;261.6;1309;-2.7771e-06;10 mA
663.786;0.348694;262;1311;-2.89917e-06;10 mA
664.186;0.348511;262.4;1313;-3.11279e-06;10 mA
664.586;0.348328;262.8;1315;-2.71606e-06;10 mA
664.986;0.348145;263.2;1317;-2.71606e-06;10 mA
665.386;0.347961;263.6;1319;-2.86865e-06;10 mA
665.786;0.347778;264;1321;-2.99072e-06;10 mA
666.186;0.347565;264.4;1323;-2.86865e-06;10 mA
666.586;0.347351;264.8;1325;-2.80762e-06;10 mA
666.986;0.347168;265.2;1327;-2.92969e-06;10 mA
667.386;0.347015;265.6;1329;-2.92969e-06;10 mA
667.786;0.346802;266;1331;-3.54004e-06;10 mA
668.186;0.346619;266.4;1333;-2.92969e-06;10 mA
668.586;0.346436;266.8;1335;-2.99072e-06;10 mA
668.986;0.346222;267.2;1337;-2.68555e-06;10 mA
669.386;0.346069;267.6;1339;-2.99072e-06;10 mA
669.786;0.345856;268;1341;-3.26538e-06;10 mA
670.186;0.345703;268.4;1343;-2.86865e-06;10 mA
670.586;0.34549;268.8;1345;-2.65503e-06;10 mA
670.986;0.345337;269.2;1347;-2.83813e-06;10 mA
671.386;0.345123;269.6;1349;-2.68555e-06;10 mA
671.786;0.34494;270;1351;-2.7771e-06;10 mA
672.186;0.344727;270.4;1353;-2.68555e-06;10 mA
672.586;0.344543;270.8;1355;-2.53296e-06;10 mA
672.986;0.34436;271.2;1357;-2.71606e-06;10 mA
673.386;0.344177;271.6;1359;-2.7771e-06;10 mA
673.786;0.343994;272;1361;-2.89917e-06;10 mA
674.186;0.343842;272.4;1363;-2.83813e-06;10 mA
674.586;0.343628;272.8;1365;-2.7771e-06;10 mA
674.986;0.343475;273.2;1367;-2.99072e-06;10 mA
675.386;0.343262;273.6;1369;-2.7771e-06;10 mA
675.786;0.343109;274;1371;-2.56348e-06;10 mA
676.186;0.342926;274.4;1373;-3.08228e-06;10 mA
676.586;0.342712;274.8;1375;-2.83813e-06;10 mA
676.986;0.34256;275.2;1377;-2.68555e-06;10 mA
677.386;0.342346;275.6;1379;-3.08228e-06;10 mA
677.786;0.342163;276;1381;-3.05176e-06;10 mA
678.186;0.34198;276.4;1383;-2.62451e-06;10 mA
678.586;0.341797;276.8;1385;-3.20435e-06;10 mA
678.986;0.341583;277.2;1387;-3.08228e-06;10 mA
679.386;0.3414;277.6;1389;-3.08228e-06;10 mA
679.786;0.341248;278;1391;-2.74658e-06;10 mA
680.186;0.341034;278.4;1393;-3.14331e-06;10 mA
680.586;0.340851;278.8;1395;-2.7771e-06;10 mA
680.986;0.340668;279.2;1397;-2.86865e-06;10 mA
681.386;0.340485;279.6;1399;-2.80762e-06;10 mA
681.786;0.340302;280;1401;-2.80762e-06;10 mA
682.186;0.340149;280.4;1403;-3.17383e-06;10 mA
682.586;0.339996;280.8;1405;-3.11279e-06;10 mA
682.986;0.339813;281.2;1407;-3.08228e-06;10 mA
683.386;0.3396;281.6;1409;-2.96021e-06;10 mA
683.786;0.339447;282;1411;-3.20435e-06;10 mA
684.186;0.339264;282.4;1413;-3.11279e-06;10 mA
684.586;0.339081;282.8;1415;-3.11279e-06;10 mA
684.986;0.338898;283.2;1417;-3.14331e-06;10 mA
685.386;0.338715;283.6;1419;-2.96021e-06;10 mA
685.786;0.338562;284;1421;-2.92969e-06;10 mA
686.186;0.338379;284.4;1423;-2.89917e-06;10 mA
686.586;0.338196;284.8;1425;-2.7771e-06;10 mA
686.986;0.338013;285.2;1427;-3.02124e-06;10 mA
687.386;0.33786;285.6;1429;-2.62451e-06;10 mA
687.786;0.337677;286;1431;-2.99072e-06;10 mA
688.186;0.337494;286.4;1433;-2.68555e-06;10 mA
688.586;0.337341;286.8;1435;-3.02124e-06;10 mA
688.986;0.337128;287.2;1437;-2.99072e-06;10 mA
689.386;0.336975;287.6;1439;-3.08228e-06;10 mA
689.786;0.336792;288;1441;-3.02124e-06;10 mA
690.186;0.336609;288.4;1443;-3.14331e-06;10 mA
690.586;0.336456;288.8;1445;-2.47192e-06;10 mA
690.986;0.336273;289.2;1447;-3.32642e-06;10 mA
691.386;0.33609;289.6;1449;-2.80762e-06;10 mA
691.786;0.335907;290;1451;-2.68555e-06;10 mA
692.186;0.335724;290.4;1453;-3.14331e-06;10 mA
692.586;0.335541;290.8;1455;-3.35693e-06;10 mA
692.986;0.335358;291.2;1457;-3.32642e-06;10 mA
693.386;0.335205;291.6;1459;-2.96021e-06;10 mA
693.786;0.335022;292;1461;-2.89917e-06;10 mA
694.186;0.334839;292.4;1463;-2.83813e-06;10 mA
694.586;0.334686;292.8;1465;-2.89917e-06;10 mA
694.986;0.334503;293.2;1467;-2.86865e-06;10 mA
695.386;0.334351;293.6;1469;-3.05176e-06;10 mA
695.786;0.334167;294;1471;-2.83813e-06;10 mA
696.186;0.334015;294.4;1473;-3.17383e-06;10 mA
696.586;0.333832;294.8;1475;-2.7771e-06;10 mA
696.986;0.333649;295.2;1477;-3.23486e-06;10 mA
697.386;0.333496;295.6;1479;-2.99072e-06;10 mA
697.786;0.333313;296;1481;-2.7771e-06;10 mA
698.186;0.33316;296.4;1483;-3.02124e-06;10 mA
698.586;0.333008;296.8;1485;-3.2959e-06;10 mA
698.986;0.332825;297.2;1487;-3.2959e-06;10 mA
699.386;0.332672;297.6;1489;-2.7771e-06;10 mA
699.786;0.332458;298;1491;-2.92969e-06;10 mA
700.186;0.332275;298.4;1493;-3.08228e-06;10 mA
700.586;0.332092;298.8;1495;-2.80762e-06;10 mA
700.986;0.331909;299.2;1497;-2.96021e-06;10 mA
701.386;0.331757;299.6;1499;-2.7771e-06;10 mA
701.786;0.331573;300;1501;-2.83813e-06;10 mA
702.186;0.33139;300.4;1503;-2.80762e-06;10 mA
702.586;0.331207;300.8;1505;-2.56348e-06;10 mA
702.986;0.331024;301.2;1507;-2.80762e-06;10 mA
703.386;0.330841;301.6;1509;-2.62451e-06;10 mA
703.786;0.330688;302;1511;-3.17383e-06;10 mA
704.186;0.330475;302.4;1513;-3.05176e-06;10 mA
704.586;0.330292;302.8;1515;-2.99072e-06;10 mA
704.986;0.330139;303.2;1517;-3.23486e-06;10 mA
705.386;0.329956;303.6;1519;-2.92969e-06;10 mA
705.786;0.329773;304;1521;-2.96021e-06;10 mA
706.186;0.32959;304.4;1523;-2.99072e-06;10 mA
706.586;0.329407;304.8;1525;-2.92969e-06;10 mA
706.986;0.329254;305.2;1527;-3.32642e-06;10 mA
707.386;0.329071;305.6;1529;-3.26538e-06;10 mA
707.786;0.328888;306;1531;-3.41797e-06;10 mA
708.186;0.328735;306.4;1533;-2.80762e-06;10 mA
708.586;0.328583;306.8;1535;-2.86865e-06;10 mA
708.986;0.3284;307.2;1537;-2.92969e-06;10 mA
709.386;0.328217;307.6;1539;-3.02124e-06;10 mA
709.786;0.328033;308;1541;-3.17383e-06;10 mA
710.186;0.32785;308.4;1543;-2.74658e-06;10 mA
710.586;0.327698;308.8;1545;-2.96021e-06;10 mA
710.986;0.327484;309.2;1547;-2.83813e-06;10 mA
711.386;0.327332;309.6;1549;-3.14331e-06;10 mA
711.786;0.327179;310;1551;-3.20435e-06;10 mA
712.186;0.326996;310.4;1553;-3.20435e-06;10 mA
712.586;0.326843;310.8;1555;-2.92969e-06;10 mA
712.986;0.32666;311.2;1557;-2.68555e-06;10 mA
713.386;0.326477;311.6;1559;-3.20435e-06;10 mA
713.786;0.326294;312;1561;-2.99072e-06;10 mA
714.186;0.326141;312.4;1563;-2.99072e-06;10 mA
714.586;0.325989;312.8;1565;-3.02124e-06;10 mA
714.986;0.325836;313.2;1567;-2.86865e-06;10 mA
715.386;0.325623;313.6;1569;-2.96021e-06;10 mA
715.786;0.32547;314;1571;-3.02124e-06;10 mA
716.186;0.325317;314.4;1573;-2.71606e-06;10 mA
716.586;0.325134;314.8;1575;-2.80762e-06;10 mA
716.986;0.324951;315.2;1577;-3.20435e-06;10 mA
717.386;0.324768;315.6;1579;-2.92969e-06;10 mA
717.786;0.324615;316;1581;-2.34985e-06;10 mA
718.186;0.324432;316.4;1583;-2.68555e-06;10 mA
718.586;0.324219;316.8;1585;-2.96021e-06;10 mA
718.986;0.324066;317.2;1587;-2.92969e-06;10 mA
719.386;0.323883;317.6;1589;-2.92969e-06;10 mA
719.786;0.3237;318;1591;-3.08228e-06;10 mA
720.186;0.323517;318.4;1593;-3.02124e-06;10 mA
720.586;0.323334;318.8;1595;-3.23486e-06;10 mA
720.986;0.323151;319.2;1597;-2.86865e-06;10 mA
721.386;0.322937;319.6;1599;-3.17383e-06;10 mA
721.786;0.322815;320;1601;-2.74658e-06;10 mA
722.186;0.322632;320.4;1603;-2.74658e-06;10 mA
722.586;0.322479;320.8;1605;-2.80762e-06;10 mA
722.986;0.322266;321.2;1607;-3.17383e-06;10 mA
723.386;0.322113;321.6;1609;-3.17383e-06;10 mA
723.786;0.32193;322;1611;-3.20435e-06;10 mA
724.186;0.321747;322.4;1613;-3.17383e-06;10 mA
724.586;0.321564;322.8;1615;-3.02124e-06;10 mA
724.986;0.321381;323.2;1617;-2.92969e-06;10 mA
725.386;0.321259;323.6;1619;-3.05176e-06;10 mA
725.786;0.321075;324;1621;-2.92969e-06;10 mA
726.186;0.320923;324.4;1623;-3.23486e-06;10 mA
726.586;0.320801;324.8;1625;-2.92969e-06;10 mA
726.986;0.320618;325.2;1627;-2.68555e-06;10 mA
727.386;0.320496;325.6;1629;-3.20435e-06;10 mA
727.786;0.320343;326;1631;-2.80762e-06;10 mA
728.186;0.32019;326.4;1633;-3.08228e-06;10 mA
728.586;0.320007;326.8;1635;-2.99072e-06;10 mA
728.986;0.319824;327.2;1637;-2.83813e-06;10 mA
729.386;0.319672;327.6;1639;-2.96021e-06;10 mA
729.786;0.319489;328;1641;-2.89917e-06;10 mA
730.186;0.319336;328.4;1643;-3.38745e-06;10 mA
730.586;0.319153;328.8;1645;-2.99072e-06;10 mA
730.986;0.31897;329.2;1647;-2.68555e-06;10 mA
731.386;0.318817;329.6;1649;-3.23486e-06;10 mA
731.786;0.318665;330;1651;-3.14331e-06;10 mA
732.186;0.318481;330.4;1653;-2.41089e-06;10 mA
732.586;0.318298;330.8;1655;-2.7771e-06;10 mA
732.986;0.318115;331.2;1657;-3.17383e-06;10 mA
733.386;0.317932;331.6;1659;-2.92969e-06;10 mA
733.786;0.31778;332;1661;-2.92969e-06;10 mA
734.186;0.317596;332.4;1663;-2.89917e-06;10 mA
734.586;0.317444;332.8;1665;-2.83813e-06;10 mA
734.986;0.317291;333.2;1667;-3.17383e-06;10 mA
735.386;0.317108;333.6;1669;-2.86865e-06;10 mA
735.786;0.316895;334;1671;-3.2959e-06;10 mA
736.186;0.316742;334.4;1673;-2.68555e-06;10 mA
736.586;0.316559;334.8;1675;-2.80762e-06;10 mA
736.986;0.316406;335.2;1677;-3.479e-06;10 mA
737.386;0.316223;335.6;1679;-3.11279e-06;10 mA
737.786;0.316071;336;1681;-2.92969e-06;10 mA
738.186;0.315887;336.4;1683;-3.2959e-06;10 mA
738.586;0.315735;336.8;1685;-2.96021e-06;10 mA
738.986;0.315552;337.2;1687;-3.23486e-06;10 mA
739.386;0.315399;337.6;1689;-2.80762e-06;10 mA
739.786;0.315216;338;1691;-3.02124e-06;10 mA
740.186;0.315063;338.4;1693;-2.80762e-06;10 mA
740.586;0.31488;338.8;1695;-2.92969e-06;10 mA
740.986;0.314728;339.2;1697;-3.11279e-06;10 mA
741.386;0.314514;339.6;1699;-2.71606e-06;10 mA
741.786;0.314362;340;1701;-2.92969e-06;10 mA
742.186;0.314209;340.4;1703;-3.11279e-06;10 mA
742.586;0.314026;340.8;1705;-2.7771e-06;10 mA
742.986;0.313873;341.2;1707;-2.68555e-06;10 mA
743.386;0.313721;341.6;1709;-2.86865e-06;10 mA
743.786;0.313599;342;1711;-2.68555e-06;10 mA
744.186;0.313416;342.4;1713;-2.71606e-06;10 mA
744.586;0.313232;342.8;1715;-3.26538e-06;10 mA
744.986;0.31308;343.2;1717;-3.05176e-06;10 mA
745.386;0.312897;343.6;1719;-2.86865e-06;10 mA
745.786;0.312714;344;1721;-2.89917e-06;10 mA
746.186;0.312531;344.4;1723;-2.86865e-06;10 mA
746.586;0.312347;344.8;1725;-3.02124e-06;10 mA
746.986;0.312195;345.2;1727;-2.83813e-06;10 mA
747.386;0.311981;345.6;1729;-2.83813e-06;10 mA
747.786;0.311829;346;1731;-3.17383e-06;10 mA
748.186;0.311646;346.4;1733;-3.02124e-06;10 mA
748.586;0.311462;346.8;1735;-3.08228e-06;10 mA
748.986;0.31131;347.2;1737;-2.89917e-06;10 mA
749.386;0.311127;347.6;1739;-2.99072e-06;10 mA
749.786;0.310944;348;1741;-2.96021e-06;10 mA
750.186;0.31073;348.4;1743;-2.68555e-06;10 mA
750.586;0.310547;348.8;1745;-3.02124e-06;10 mA
750.986;0.310394;349.2;1747;-2.92969e-06;10 mA
751.386;0.310242;349.6;1749;-2.71606e-06;10 mA
751.786;0.310089;350;1751;-2.83813e-06;10 mA
752.186;0.309906;350.4;1753;-2.80762e-06;10 mA
752.586;0.309723;350.8;1755;-3.35693e-06;10 mA
752.986;0.309601;351.2;1757;-2.92969e-06;10 mA
753.386;0.309448;351.6;1759;-3.2959e-06;10 mA
753.786;0.309265;352;1761;-2.96021e-06;10 mA
754.186;0.309113;352.4;1763;-2.86865e-06;10 mA
754.586;0.308929;352.8;1765;-2.99072e-06;10 mA
754.986;0.308777;353.2;1767;-2.68555e-06;10 mA
755.386;0.308594;353.6;1769;-3.05176e-06;10 mA
755.786;0.308411;354;1771;-3.35693e-06;10 mA
756.186;0.308258;354.4;1773;-3.02124e-06;10 mA
756.586;0.308075;354.8;1775;-2.65503e-06;10 mA
756.986;0.307922;355.2;1777;-2.92969e-06;10 mA
757.386;0.307739;355.6;1779;-2.89917e-06;10 mA
757.786;0.307587;356;1781;-2.86865e-06;10 mA
758.186;0.307404;356.4;1783;-2.96021e-06;10 mA
758.586;0.30722;356.8;1785;-3.479e-06;10 mA
758.986;0.307037;357.2;1787;-3.17383e-06;10 mA
759.386;0.306885;357.6;1789;-2.96021e-06;10 mA
759.786;0.306702;358;1791;-2.86865e-06;10 mA
760.186;0.306519;358.4;1793;-2.99072e-06;10 mA
760.586;0.306335;358.8;1795;-2.7771e-06;10 mA
760.986;0.306183;359.2;1797;-2.92969e-06;10 mA
761.386;0.306;359.6;1799;-3.05176e-06;10 mA
761.786;0.305847;360;1801;-3.11279e-06;10 mA
762.186;0.305664;360.4;1803;-2.92969e-06;10 mA
762.586;0.305511;360.8;1805;-3.11279e-06;10 mA
762.986;0.305328;361.2;1807;-2.65503e-06;10 mA
763.386;0.305176;361.6;1809;-3.11279e-06;10 mA
763.786;0.305023;362;1811;-2.92969e-06;10 mA
764.186;0.30484;362.4;1813;-2.92969e-06;10 mA
764.586;0.3046875;362.8;1815;-2.7771e-06;10 mA
764.986;0.304535;363.2;1817;-2.99072e-06;10 mA
765.386;0.304352;363.6;1819;-3.23486e-06;10 mA
765.786;0.304199;364;1821;-3.35693e-06;10 mA
766.186;0.304047;364.4;1823;-2.92969e-06;10 mA
766.586;0.303894;364.8;1825;-3.23486e-06;10 mA
766.986;0.303711;365.2;1827;-3.17383e-06;10 mA
767.386;0.303528;365.6;1829;-3.02124e-06;10 mA
767.786;0.303375;366;1831;-2.80762e-06;10 mA
768.186;0.303192;366.4;1833;-2.92969e-06;10 mA
768.586;0.303009;366.8;1835;-2.99072e-06;10 mA
768.986;0.302826;367.2;1837;-3.32642e-06;10 mA
769.386;0.302673;367.6;1839;-2.89917e-06;10 mA
769.786;0.30249;368;1841;-2.99072e-06;10 mA
770.186;0.302307;368.4;1843;-2.86865e-06;10 mA
770.586;0.302124;368.8;1845;-3.26538e-06;10 mA
770.986;0.301971;369.2;1847;-3.08228e-06;10 mA
771.386;0.301788;369.6;1849;-2.86865e-06;10 mA
771.786;0.301605;370;1851;-3.08228e-06;10 mA
772.186;0.301422;370.4;1853;-3.05176e-06;10 mA
772.586;0.30127;370.8;1855;-3.17383e-06;10 mA
772.986;0.301086;371.2;1857;-3.23486e-06;10 mA
773.386;0.300934;371.6;1859;-3.05176e-06;10 mA
773.786;0.300781;372;1861;-3.05176e-06;10 mA
774.186;0.300598;372.4;1863;-2.92969e-06;10 mA
774.586;0.300446;372.8;1865;-3.11279e-06;10 mA
774.986;0.300323;373.2;1867;-2.74658e-06;10 mA
775.386;0.30011;373.6;1869;-3.02124e-06;10 mA
775.786;0.299988;374;1871;-2.80762e-06;10 mA
776.186;0.299835;374.4;1873;-2.7771e-06;10 mA
776.586;0.299652;374.8;1875;-2.50244e-06;10 mA
776.986;0.2995;375.2;1877;-3.11279e-06;10 mA
777.386;0.299316;375.6;1879;-3.02124e-06;10 mA
777.786;0.299164;376;1881;-2.92969e-06;10 mA
778.186;0.298981;376.4;1883;-3.17383e-06;10 mA
778.586;0.298828;376.8;1885;-3.17383e-06;10 mA
778.986;0.298645;377.2;1887;-3.08228e-06;10 mA
779.386;0.298462;377.6;1889;-2.89917e-06;10 mA
779.786;0.298309;378;1891;-3.02124e-06;10 mA
780.186;0.298157;378.4;1893;-2.80762e-06;10 mA
780.586;0.297974;378.8;1895;-2.99072e-06;10 mA
780.986;0.297791;379.2;1897;-3.08228e-06;10 mA
781.386;0.297638;379.6;1899;-2.92969e-06;10 mA
781.786;0.297455;380;1901;-2.92969e-06;10 mA
782.186;0.297302;380.4;1903;-2.89917e-06;10 mA
782.586;0.29715;380.8;1905;-3.17383e-06;10 mA
782.986;0.296997;381.2;1907;-2.83813e-06;10 mA
783.386;0.296814;381.6;1909;-3.11279e-06;10 mA
783.786;0.296661;382;1911;-2.56348e-06;10 mA
784.186;0.296509;382.4;1913;-3.17383e-06;10 mA
784.586;0.296356;382.8;1915;-3.05176e-06;10 mA
784.986;0.296173;383.2;1917;-3.32642e-06;10 mA
785.386;0.296021;383.6;1919;-3.02124e-06;10 mA
785.786;0.295868;384;1921;-3.05176e-06;10 mA
786.186;0.295715;384.4;1923;-2.96021e-06;10 mA
786.586;0.295563;384.8;1925;-2.92969e-06;10 mA
786.986;0.29538;385.2;1927;-2.50244e-06;10 mA
787.386;0.295227;385.6;1929;-2.59399e-06;10 mA
787.786;0.295044;386;1931;-2.92969e-06;10 mA
788.186;0.294861;386.4;1933;-3.17383e-06;10 mA
788.586;0.294678;386.8;1935;-2.65503e-06;10 mA
788.986;0.294525;387.2;1937;-2.99072e-06;10 mA
789.386;0.294342;387.6;1939;-2.92969e-06;10 mA
789.786;0.294189;388;1941;-2.56348e-06;10 mA
790.186;0.293976;388.4;1943;-3.20435e-06;10 mA
790.586;0.293793;388.8;1945;-2.89917e-06;10 mA
790.986;0.29361;389.2;1947;-3.02124e-06;10 mA
791.386;0.293457;389.6;1949;-2.92969e-06;10 mA
791.786;0.293274;390;1951;-3.35693e-06;10 mA
792.186;0.293121;390.4;1953;-2.99072e-06;10 mA
792.586;0.292938;390.8;1955;-3.44849e-06;10 mA
792.986;0.292755;391.2;1957;-3.2959e-06;10 mA
793.386;0.292603;391.6;1959;-3.14331e-06;10 mA
793.786;0.29245;392;1961;-2.99072e-06;10 mA
794.186;0.292267;392.4;1963;-2.83813e-06;10 mA
794.586;0.292084;392.8;1965;-2.83813e-06;10 mA
794.986;0.291931;393.2;1967;-2.53296e-06;10 mA
795.386;0.291748;393.6;1969;-2.96021e-06;10 mA
795.786;0.291565;394;1971;-3.20435e-06;10 mA
796.186;0.291412;394.4;1973;-3.14331e-06;10 mA
796.586;0.291229;394.8;1975;-3.17383e-06;10 mA
796.986;0.291077;395.2;1977;-3.20435e-06;10 mA
797.386;0.290924;395.6;1979;-2.92969e-06;10 mA
797.786;0.290741;396;1981;-2.86865e-06;10 mA
798.186;0.290558;396.4;1983;-3.32642e-06;10 mA
798.586;0.290375;396.8;1985;-3.08228e-06;10 mA
798.986;0.290222;397.2;1987;-2.86865e-06;10 mA
799.386;0.290039;397.6;1989;-2.71606e-06;10 mA
799.786;0.289856;398;1991;-2.92969e-06;10 mA
800.186;0.289703;398.4;1993;-2.92969e-06;10 mA
800.586;0.28952;398.8;1995;-3.26538e-06;10 mA
800.986;0.289368;399.2;1997;-2.86865e-06;10 mA
801.386;0.289215;399.6;1999;-3.05176e-06;10 mA
801.586;0.289124;399.8;2000;-2.7771e-06;10 mA