File: Mxene1-5Ag-DESCARGA.txt
Time (s);WE(1).Potential (V);Corrected time (s);Index;WE(1).Current (A);Current range;Cutoffs
506.608;0.812073;0;1;-3.52478e-05;10 mA;WE(1).Potential < -0,1 V , WE(1).Potential < -0,1 V , WE(1).Potential < -0,1 V , WE(1).Potential < -0,1 V
506.808;0.798645;0.2;2;-3.60107e-05;10 mA;
507.008;0.788269;0.4;3;-3.40881e-05;10 mA;
507.208;0.779419;0.6;4;-3.57056e-05;10 mA;
507.408;0.771484;0.8;5;-3.53088e-05;10 mA;
507.608;0.76416;1;6;-3.80249e-05;10 mA;
507.808;0.757446;1.2;7;-3.70483e-05;10 mA;
508.008;0.751038;1.4;8;-3.59497e-05;10 mA;
508.208;0.744934;1.6;9;-3.79944e-05;10 mA;
508.408;0.739136;1.8;10;-3.59497e-05;10 mA;
508.608;0.733643;2;11;-3.76282e-05;10 mA;
508.808;0.728455;2.2;12;-3.76282e-05;10 mA;
509.008;0.723267;2.4;13;-3.42102e-05;10 mA;
509.208;0.718079;2.6;14;-3.74451e-05;10 mA;
509.408;0.713196;2.8;15;-3.47595e-05;10 mA;
509.608;0.708618;3;16;-3.44543e-05;10 mA;
509.808;0.704041;3.2;17;-3.54309e-05;10 mA;
510.008;0.699463;3.4;18;-3.76892e-05;10 mA;
510.208;0.694885;3.6;19;-3.75977e-05;10 mA;
510.408;0.690613;3.8;20;-3.43933e-05;10 mA;
510.608;0.68634;4;21;-3.55225e-05;10 mA;
510.808;0.682068;4.2;22;-3.45764e-05;10 mA;
511.008;0.678101;4.4;23;-3.71399e-05;10 mA;
511.208;0.674133;4.6;24;-3.59802e-05;10 mA;
511.408;0.670166;4.8;25;-3.72314e-05;10 mA;
511.608;0.666199;5;26;-3.53088e-05;10 mA;
511.808;0.662537;5.2;27;-3.49426e-05;10 mA;
512.008;0.658569;5.4;28;-3.41492e-05;10 mA;
512.208;0.655212;5.6;29;-3.63159e-05;10 mA;
512.408;0.65155;5.8;30;-3.48511e-05;10 mA;
512.608;0.647888;6;31;-3.54919e-05;10 mA;
512.808;0.644531;6.2;32;-3.70789e-05;10 mA;
513.008;0.640869;6.4;33;-3.53088e-05;10 mA;
513.208;0.637512;6.6;34;-3.46069e-05;10 mA;
513.408;0.634155;6.8;35;-3.41187e-05;10 mA;
513.608;0.630798;7;36;-3.71399e-05;10 mA;
513.808;0.627441;7.2;37;-3.68042e-05;10 mA;
514.008;0.624084;7.4;38;-3.44238e-05;10 mA;
514.208;0.621033;7.6;39;-3.46069e-05;10 mA;
514.408;0.617676;7.8;40;-3.65906e-05;10 mA;
514.608;0.614624;8;41;-3.59497e-05;10 mA;
514.808;0.611572;8.2;42;-3.74451e-05;10 mA;
515.008;0.608521;8.4;43;-3.61938e-05;10 mA;
515.208;0.605469;8.6;44;-3.59497e-05;10 mA;
515.408;0.602417;8.8;45;-3.54309e-05;10 mA;
515.608;0.599365;9;46;-3.54309e-05;10 mA;
515.808;0.596313;9.2;47;-3.65601e-05;10 mA;
516.008;0.593567;9.4;48;-3.76892e-05;10 mA;
516.208;0.590515;9.6;49;-3.46985e-05;10 mA;
516.408;0.587769;9.8;50;-3.47595e-05;10 mA;
516.608;0.584717;10;51;-3.3844e-05;10 mA;
516.808;0.58197;10.2;52;-3.34167e-05;10 mA;
517.008;0.579224;10.4;53;-3.80249e-05;10 mA;
517.208;0.576477;10.6;54;-3.35999e-05;10 mA;
517.408;0.57373;10.8;55;-3.5675e-05;10 mA;
517.608;0.570984;11;56;-3.46069e-05;10 mA;
517.808;0.568237;11.2;57;-3.63159e-05;10 mA;
518.008;0.565796;11.4;58;-3.49426e-05;10 mA;
518.208;0.563049;11.6;59;-3.64685e-05;10 mA;
518.408;0.560608;11.8;60;-3.41797e-05;10 mA;
518.608;0.557861;12;61;-3.4729e-05;10 mA;
518.808;0.55542;12.2;62;-3.79639e-05;10 mA;
519.008;0.552979;12.4;63;-3.49121e-05;10 mA;
519.208;0.550537;12.6;64;-3.43628e-05;10 mA;
519.408;0.548096;12.8;65;-3.65295e-05;10 mA;
519.608;0.545654;13;66;-3.48816e-05;10 mA;
519.808;0.543213;13.2;67;-3.64075e-05;10 mA;
520.008;0.540771;13.4;68;-3.49426e-05;10 mA;
520.208;0.53833;13.6;69;-3.38745e-05;10 mA;
520.408;0.536194;13.8;70;-3.59192e-05;10 mA;
520.608;0.533752;14;71;-3.8147e-05;10 mA;
520.808;0.531311;14.2;72;-3.41187e-05;10 mA;
521.008;0.529175;14.4;73;-3.61328e-05;10 mA;
521.208;0.526733;14.6;74;-3.58276e-05;10 mA;
521.408;0.524597;14.8;75;-3.57361e-05;10 mA;
521.608;0.522461;15;76;-3.52783e-05;10 mA;
521.808;0.52002;15.2;77;-3.45459e-05;10 mA;
522.008;0.517883;15.4;78;-3.38135e-05;10 mA;
522.208;0.515747;15.6;79;-3.40576e-05;10 mA;
522.408;0.513611;15.8;80;-3.55225e-05;10 mA;
522.608;0.511475;16;81;-3.59192e-05;10 mA;
522.808;0.509338;16.2;82;-3.90625E-05;10 mA;
523.008;0.507202;16.4;83;-3.35388e-05;10 mA;
523.208;0.505371;16.6;84;-3.89099e-05;10 mA;
523.408;0.503235;16.8;85;-3.45459e-05;10 mA;
523.608;0.501099;17;86;-3.61633e-05;10 mA;
523.808;0.499298;17.2;87;-3.6377e-05;10 mA;
524.008;0.497314;17.4;88;-3.67737e-05;10 mA;
524.208;0.495331;17.6;89;-3.36914e-05;10 mA;
524.408;0.493378;17.8;90;-3.59497e-05;10 mA;
524.608;0.491425;18;91;-3.35388e-05;10 mA;
524.808;0.489502;18.2;92;-3.52173e-05;10 mA;
525.008;0.48761;18.4;93;-3.75061e-05;10 mA;
525.208;0.485718;18.6;94;-3.44543e-05;10 mA;
525.408;0.483856;18.8;95;-3.59192e-05;10 mA;
525.608;0.482025;19;96;-3.61938e-05;10 mA;
525.808;0.480164;19.2;97;-3.46069e-05;10 mA;
526.008;0.478363;19.4;98;-3.92151e-05;10 mA;
526.208;0.4765625;19.6;99;-3.33862e-05;10 mA;
526.408;0.474792;19.8;100;-3.86353e-05;10 mA;
526.608;0.472992;20;101;-3.66211e-05;10 mA;
526.808;0.471222;20.2;102;-3.5553e-05;10 mA;
527.008;0.469482;20.4;103;-3.57361e-05;10 mA;
527.208;0.467773;20.6;104;-3.71399e-05;10 mA;
527.408;0.466064;20.8;105;-3.41797e-05;10 mA;
527.608;0.464386;21;106;-3.62244e-05;10 mA;
527.808;0.462677;21.2;107;-3.53394e-05;10 mA;
528.008;0.460999;21.4;108;-3.84827e-05;10 mA;
528.208;0.459351;21.6;109;-3.79333e-05;10 mA;
528.408;0.457703;21.8;110;-3.43628e-05;10 mA;
528.608;0.456085;22;111;-3.76587e-05;10 mA;
528.808;0.454437;22.2;112;-3.46985e-05;10 mA;
529.008;0.452881;22.4;113;-3.70789e-05;10 mA;
529.208;0.451294;22.6;114;-3.33862e-05;10 mA;
529.408;0.449707;22.8;115;-3.68347e-05;10 mA;
529.608;0.448151;23;116;-3.71399e-05;10 mA;
529.808;0.446594;23.2;117;-3.42102e-05;10 mA;
530.008;0.445007;23.4;118;-3.68347e-05;10 mA;
530.208;0.443481;23.6;119;-3.62549e-05;10 mA;
530.408;0.441986;23.8;120;-3.63464e-05;10 mA;
530.608;0.44046;24;121;-3.64685e-05;10 mA;
530.808;0.438965;24.2;122;-3.56445e-05;10 mA;
531.008;0.437469;24.4;123;-3.64685e-05;10 mA;
531.208;0.436005;24.6;124;-3.56445e-05;10 mA;
531.408;0.43457;24.8;125;-3.38745e-05;10 mA;
531.608;0.433105;25;126;-3.60718e-05;10 mA;
531.808;0.431671;25.2;127;-3.67432e-05;10 mA;
532.008;0.430267;25.4;128;-3.42712e-05;10 mA;
532.208;0.428833;25.6;129;-3.62244e-05;10 mA;
532.408;0.42746;25.8;130;-3.75671e-05;10 mA;
532.608;0.426025;26;131;-3.53394e-05;10 mA;
532.808;0.424652;26.2;132;-3.76587e-05;10 mA;
533.008;0.423309;26.4;133;-3.5553e-05;10 mA;
533.208;0.421967;26.6;134;-3.68347e-05;10 mA;
533.408;0.420624;26.8;135;-3.46375e-05;10 mA;
533.608;0.419281;27;136;-3.62854e-05;10 mA;
533.808;0.417938;27.2;137;-3.41492e-05;10 mA;
534.008;0.416626;27.4;138;-3.51562e-05;10 mA;
534.208;0.415314;27.6;139;-3.7323e-05;10 mA;
534.408;0.414001;27.8;140;-3.59802e-05;10 mA;
534.608;0.412689;28;141;-3.53394e-05;10 mA;
534.808;0.411438;28.2;142;-3.43628e-05;10 mA;
535.008;0.410156;28.4;143;-3.72925e-05;10 mA;
535.208;0.408905;28.6;144;-3.78113e-05;10 mA;
535.408;0.407654;28.8;145;-3.76892e-05;10 mA;
535.608;0.406403;29;146;-3.72925e-05;10 mA;
535.808;0.405151;29.2;147;-3.63159e-05;10 mA;
536.008;0.403931;29.4;148;-3.75366e-05;10 mA;
536.208;0.40271;29.6;149;-3.51868e-05;10 mA;
536.408;0.401489;29.8;150;-3.68958e-05;10 mA;
536.608;0.400299;30;151;-3.68042e-05;10 mA;
536.808;0.399109;30.2;152;-3.44543e-05;10 mA;
537.008;0.397888;30.4;153;-3.44543e-05;10 mA;
537.208;0.396698;30.6;154;-3.61023e-05;10 mA;
537.408;0.395538;30.8;155;-3.42407e-05;10 mA;
537.608;0.394379;31;156;-3.76892e-05;10 mA;
537.808;0.39325;31.2;157;-3.6499e-05;10 mA;
538.008;0.39209;31.4;158;-3.5675e-05;10 mA;
538.208;0.390961;31.6;159;-3.4729e-05;10 mA;
538.408;0.389832;31.8;160;-3.61328e-05;10 mA;
538.608;0.388702;32;161;-3.6499e-05;10 mA;
538.808;0.387573;32.2;162;-3.46069e-05;10 mA;
539.008;0.386475;32.4;163;-3.39355e-05;10 mA;
539.208;0.385376;32.6;164;-3.53088e-05;10 mA;
539.408;0.384277;32.8;165;-3.5675e-05;10 mA;
539.608;0.383179;33;166;-3.61023e-05;10 mA;
539.808;0.382111;33.2;167;-3.5553e-05;10 mA;
540.008;0.381042;33.4;168;-3.76587e-05;10 mA;
540.208;0.379974;33.6;169;-3.6377e-05;10 mA;
540.408;0.378906;33.8;170;-3.41187e-05;10 mA;
540.608;0.377869;34;171;-3.42102e-05;10 mA;
540.808;0.376801;34.2;172;-3.72009e-05;10 mA;
541.008;0.375763;34.4;173;-3.57666e-05;10 mA;
541.208;0.374725;34.6;174;-3.79028e-05;10 mA;
541.408;0.373718;34.8;175;-3.69568e-05;10 mA;
541.608;0.372711;35;176;-3.80554e-05;10 mA;
541.808;0.371643;35.2;177;-3.50037e-05;10 mA;
542.008;0.370636;35.4;178;-3.61938e-05;10 mA;
542.208;0.369629;35.6;179;-3.64075e-05;10 mA;
542.408;0.368622;35.8;180;-3.50342e-05;10 mA;
542.608;0.367645;36;181;-3.76587e-05;10 mA;
542.808;0.366638;36.2;182;-3.46985e-05;10 mA;
543.008;0.365631;36.4;183;-3.70483e-05;10 mA;
543.208;0.364624;36.6;184;-3.45459e-05;10 mA;
543.408;0.363647;36.8;185;-3.40576e-05;10 mA;
543.608;0.362671;37;186;-3.72925e-05;10 mA;
543.808;0.361725;37.2;187;-3.51562e-05;10 mA;
544.008;0.360748;37.4;188;-3.479e-05;10 mA;
544.208;0.359802;37.6;189;-3.44543e-05;10 mA;
544.408;0.358856;37.8;190;-3.60413e-05;10 mA;
544.608;0.35791;38;191;-3.66211e-05;10 mA;
544.808;0.356964;38.2;192;-3.67126e-05;10 mA;
545.008;0.356018;38.4;193;-3.61938e-05;10 mA;
545.208;0.355103;38.6;194;-3.63159e-05;10 mA;
545.408;0.354187;38.8;195;-3.60107e-05;10 mA;
545.608;0.353241;39;196;-3.62854e-05;10 mA;
545.808;0.352295;39.2;197;-3.6438e-05;10 mA;
546.008;0.351379;39.4;198;-3.60718e-05;10 mA;
546.208;0.350464;39.6;199;-3.63464e-05;10 mA;
546.408;0.349579;39.8;200;-3.6377e-05;10 mA;
546.608;0.348663;40;201;-3.64075e-05;10 mA;
546.808;0.347778;40.2;202;-3.60718e-05;10 mA;
547.008;0.346863;40.4;203;-3.62854e-05;10 mA;
547.208;0.345978;40.6;204;-3.61938e-05;10 mA;
547.408;0.345093;40.8;205;-3.66211e-05;10 mA;
547.608;0.344238;41;206;-3.6438e-05;10 mA;
547.808;0.343353;41.2;207;-3.63159e-05;10 mA;
548.008;0.342499;41.4;208;-3.64075e-05;10 mA;
548.208;0.341614;41.6;209;-3.61633e-05;10 mA;
548.408;0.340729;41.8;210;-3.61023e-05;10 mA;
548.608;0.339874;42;211;-3.64685e-05;10 mA;
548.808;0.338989;42.2;212;-3.62549e-05;10 mA;
549.008;0.338135;42.4;213;-3.61633e-05;10 mA;
549.208;0.33728;42.6;214;-3.6499e-05;10 mA;
549.408;0.336426;42.8;215;-3.60107e-05;10 mA;
549.608;0.335541;43;216;-3.61938e-05;10 mA;
549.808;0.334686;43.2;217;-3.63464e-05;10 mA;
550.008;0.333832;43.4;218;-3.63464e-05;10 mA;
550.208;0.332977;43.6;219;-3.60107e-05;10 mA;
550.408;0.332153;43.8;220;-3.6438e-05;10 mA;
550.608;0.331268;44;221;-3.62549e-05;10 mA;
550.808;0.330414;44.2;222;-3.61023e-05;10 mA;
551.008;0.32959;44.4;223;-3.60413e-05;10 mA;
551.208;0.328735;44.6;224;-3.6438e-05;10 mA;
551.408;0.327881;44.8;225;-3.60718e-05;10 mA;
551.608;0.327026;45;226;-3.62244e-05;10 mA;
551.808;0.326202;45.2;227;-3.63159e-05;10 mA;
552.008;0.325378;45.4;228;-3.63464e-05;10 mA;
552.208;0.324524;45.6;229;-3.61633e-05;10 mA;
552.408;0.3237;45.8;230;-3.63159e-05;10 mA;
552.608;0.322876;46;231;-3.6438e-05;10 mA;
552.808;0.322052;46.2;232;-3.60413e-05;10 mA;
553.008;0.321228;46.4;233;-3.6499e-05;10 mA;
553.208;0.320404;46.6;234;-3.65295e-05;10 mA;
553.408;0.31958;46.8;235;-3.60107e-05;10 mA;
553.608;0.318756;47;236;-3.62549e-05;10 mA;
553.808;0.317963;47.2;237;-3.62549e-05;10 mA;
554.008;0.317139;47.4;238;-3.63159e-05;10 mA;
554.208;0.316315;47.6;239;-3.64685e-05;10 mA;
554.408;0.315521;47.8;240;-3.61938e-05;10 mA;
554.608;0.314728;48;241;-3.63159e-05;10 mA;
554.808;0.313873;48.2;242;-3.66516e-05;10 mA;
555.008;0.31308;48.4;243;-3.61633e-05;10 mA;
555.208;0.312286;48.6;244;-3.63159e-05;10 mA;
555.408;0.311493;48.8;245;-3.60718e-05;10 mA;
555.608;0.310669;49;246;-3.62549e-05;10 mA;
555.808;0.309845;49.2;247;-3.62549e-05;10 mA;
556.008;0.309052;49.4;248;-3.60718e-05;10 mA;
556.208;0.308228;49.6;249;-3.64685e-05;10 mA;
556.408;0.307404;49.8;250;-3.6438e-05;10 mA;
556.608;0.306641;50;251;-3.65906e-05;10 mA;
556.808;0.305847;50.2;252;-3.64685e-05;10 mA;
557.008;0.305023;50.4;253;-3.64075e-05;10 mA;
557.208;0.30423;50.6;254;-3.62244e-05;10 mA;
557.408;0.303406;50.8;255;-3.63464e-05;10 mA;
557.608;0.302612;51;256;-3.61633e-05;10 mA;
557.808;0.301819;51.2;257;-3.66821e-05;10 mA;
558.008;0.301025;51.4;258;-3.62854e-05;10 mA;
558.208;0.300201;51.6;259;-3.66516e-05;10 mA;
558.408;0.299408;51.8;260;-3.62549e-05;10 mA;
558.608;0.298615;52;261;-3.62854e-05;10 mA;
558.808;0.297821;52.2;262;-3.58887e-05;10 mA;
559.008;0.297028;52.4;263;-3.63464e-05;10 mA;
559.208;0.296234;52.6;264;-3.6499e-05;10 mA;
559.408;0.295441;52.8;265;-3.60718e-05;10 mA;
559.608;0.294647;53;266;-3.6499e-05;10 mA;
559.808;0.293823;53.2;267;-3.64075e-05;10 mA;
560.008;0.29303;53.4;268;-3.64075e-05;10 mA;
560.208;0.292236;53.6;269;-3.6377e-05;10 mA;
560.408;0.291412;53.8;270;-3.61023e-05;10 mA;
560.608;0.290588;54;271;-3.62854e-05;10 mA;
560.808;0.289795;54.2;272;-3.63464e-05;10 mA;
561.008;0.288971;54.4;273;-3.6499e-05;10 mA;
561.208;0.288177;54.6;274;-3.61328e-05;10 mA;
561.408;0.287384;54.8;275;-3.63159e-05;10 mA;
561.608;0.286591;55;276;-3.61633e-05;10 mA;
561.808;0.285767;55.2;277;-3.6438e-05;10 mA;
562.008;0.284973;55.4;278;-3.66821e-05;10 mA;
562.208;0.284149;55.6;279;-3.62549e-05;10 mA;
562.408;0.283356;55.8;280;-3.6377e-05;10 mA;
562.608;0.282532;56;281;-3.60718e-05;10 mA;
562.808;0.281738;56.2;282;-3.64075e-05;10 mA;
563.008;0.280945;56.4;283;-3.67126e-05;10 mA;
563.208;0.280151;56.6;284;-3.6499e-05;10 mA;
563.408;0.279297;56.8;285;-3.68347e-05;10 mA;
563.608;0.278503;57;286;-3.6438e-05;10 mA;
563.808;0.27771;57.2;287;-3.61938e-05;10 mA;
564.008;0.276947;57.4;288;-3.6438e-05;10 mA;
564.208;0.276154;57.6;289;-3.62549e-05;10 mA;
564.408;0.27533;57.8;290;-3.61633e-05;10 mA;
564.608;0.274536;58;291;-3.63159e-05;10 mA;
564.808;0.273712;58.2;292;-3.6499e-05;10 mA;
565.008;0.272919;58.4;293;-3.64685e-05;10 mA;
565.208;0.272125;58.6;294;-3.64685e-05;10 mA;
565.408;0.271301;58.8;295;-3.61633e-05;10 mA;
565.608;0.270477;59;296;-3.6499e-05;10 mA;
565.808;0.269684;59.2;297;-3.61938e-05;10 mA;
566.008;0.26886;59.4;298;-3.6377e-05;10 mA;
566.208;0.268066;59.6;299;-3.61938e-05;10 mA;
566.408;0.267273;59.8;300;-3.58887e-05;10 mA;
566.608;0.266479;60;301;-3.63464e-05;10 mA;
566.808;0.265686;60.2;302;-3.62549e-05;10 mA;
567.008;0.264893;60.4;303;-3.6438e-05;10 mA;
567.208;0.264099;60.6;304;-3.61328e-05;10 mA;
567.408;0.263306;60.8;305;-3.66211e-05;10 mA;
567.608;0.262482;61;306;-3.66821e-05;10 mA;
567.808;0.261688;61.2;307;-3.61023e-05;10 mA;
568.008;0.260895;61.4;308;-3.62549e-05;10 mA;
568.208;0.260101;61.6;309;-3.62244e-05;10 mA;
568.408;0.259277;61.8;310;-3.62854e-05;10 mA;
568.608;0.258484;62;311;-3.66211e-05;10 mA;
568.808;0.25769;62.2;312;-3.61633e-05;10 mA;
569.008;0.256866;62.4;313;-3.6377e-05;10 mA;
569.208;0.256073;62.6;314;-3.65906e-05;10 mA;
569.408;0.255249;62.8;315;-3.61328e-05;10 mA;
569.608;0.254456;63;316;-3.63159e-05;10 mA;
569.808;0.253632;63.2;317;-3.59802e-05;10 mA;
570.008;0.252838;63.4;318;-3.62549e-05;10 mA;
570.208;0.252045;63.6;319;-3.64685e-05;10 mA;
570.408;0.251251;63.8;320;-3.63464e-05;10 mA;
570.608;0.250427;64;321;-3.67737e-05;10 mA;
570.808;0.249634;64.2;322;-3.6438e-05;10 mA;
571.008;0.24881;64.4;323;-3.63464e-05;10 mA;
571.208;0.248016;64.6;324;-3.6377e-05;10 mA;
571.408;0.247223;64.8;325;-3.63464e-05;10 mA;
571.608;0.246399;65;326;-3.66516e-05;10 mA;
571.808;0.245575;65.2;327;-3.62244e-05;10 mA;
572.008;0.244781;65.4;328;-3.61023e-05;10 mA;
572.208;0.243958;65.6;329;-3.61938e-05;10 mA;
572.408;0.243164;65.8;330;-3.60107e-05;10 mA;
572.608;0.24234;66;331;-3.58276e-05;10 mA;
572.808;0.241547;66.2;332;-3.61328e-05;10 mA;
573.008;0.240723;66.4;333;-3.64075e-05;10 mA;
573.208;0.239929;66.6;334;-3.63464e-05;10 mA;
573.408;0.239105;66.8;335;-3.66516e-05;10 mA;
573.608;0.238342;67;336;-3.65295e-05;10 mA;
573.808;0.237518;67.2;337;-3.57971e-05;10 mA;
574.008;0.236725;67.4;338;-3.61328e-05;10 mA;
574.208;0.235931;67.6;339;-3.61328e-05;10 mA;
574.408;0.235138;67.8;340;-3.67126e-05;10 mA;
574.608;0.234344;68;341;-3.6499e-05;10 mA;
574.808;0.233551;68.2;342;-3.65906e-05;10 mA;
575.008;0.232727;68.4;343;-3.63464e-05;10 mA;
575.208;0.231964;68.6;344;-3.6438e-05;10 mA;
575.408;0.23114;68.8;345;-3.66211e-05;10 mA;
575.608;0.230347;69;346;-3.62854e-05;10 mA;
575.808;0.229523;69.2;347;-3.6377e-05;10 mA;
576.008;0.228699;69.4;348;-3.64685e-05;10 mA;
576.208;0.227905;69.6;349;-3.60718e-05;10 mA;
576.408;0.227081;69.8;350;-3.63464e-05;10 mA;
576.608;0.226288;70;351;-3.61023e-05;10 mA;
576.808;0.225464;70.2;352;-3.61633e-05;10 mA;
577.008;0.22467;70.4;353;-3.62549e-05;10 mA;
577.208;0.223846;70.6;354;-3.6499e-05;10 mA;
577.408;0.223053;70.8;355;-3.6438e-05;10 mA;
577.608;0.22226;71;356;-3.61023e-05;10 mA;
577.808;0.221436;71.2;357;-3.6377e-05;10 mA;
578.008;0.220642;71.4;358;-3.62244e-05;10 mA;
578.208;0.219849;71.6;359;-3.6377e-05;10 mA;
578.408;0.219025;71.8;360;-3.61938e-05;10 mA;
578.608;0.218231;72;361;-3.63464e-05;10 mA;
578.808;0.217438;72.2;362;-3.61023e-05;10 mA;
579.008;0.216675;72.4;363;-3.6438e-05;10 mA;
579.208;0.215881;72.6;364;-3.64685e-05;10 mA;
579.408;0.215118;72.8;365;-3.63159e-05;10 mA;
579.608;0.214325;73;366;-3.62244e-05;10 mA;
579.808;0.213531;73.2;367;-3.65295e-05;10 mA;
580.008;0.212769;73.4;368;-3.62854e-05;10 mA;
580.208;0.212006;73.6;369;-3.59802e-05;10 mA;
580.408;0.211212;73.8;370;-3.62549e-05;10 mA;
580.608;0.210419;74;371;-3.65295e-05;10 mA;
580.808;0.209656;74.2;372;-3.59497e-05;10 mA;
581.008;0.208862;74.4;373;-3.66211e-05;10 mA;
581.208;0.208099;74.6;374;-3.65295e-05;10 mA;
581.408;0.207306;74.8;375;-3.63464e-05;10 mA;
581.608;0.206512;75;376;-3.64685e-05;10 mA;
581.808;0.205719;75.2;377;-3.61633e-05;10 mA;
582.008;0.204926;75.4;378;-3.62854e-05;10 mA;
582.208;0.204132;75.6;379;-3.65906e-05;10 mA;
582.408;0.203339;75.8;380;-3.61938e-05;10 mA;
582.608;0.202545;76;381;-3.65601e-05;10 mA;
582.808;0.201752;76.2;382;-3.66211e-05;10 mA;
583.008;0.200958;76.4;383;-3.61938e-05;10 mA;
583.208;0.200134;76.6;384;-3.65295e-05;10 mA;
583.408;0.199341;76.8;385;-3.66211e-05;10 mA;
583.608;0.198547;77;386;-3.61328e-05;10 mA;
583.808;0.197754;77.2;387;-3.61633e-05;10 mA;
584.008;0.19693;77.4;388;-3.64685e-05;10 mA;
584.208;0.196136;77.6;389;-3.57971e-05;10 mA;
584.408;0.1953125;77.8;390;-3.66211e-05;10 mA;
584.608;0.194519;78;391;-3.63159e-05;10 mA;
584.808;0.193756;78.2;392;-3.65295e-05;10 mA;
585.008;0.192963;78.4;393;-3.62854e-05;10 mA;
585.208;0.192139;78.6;394;-3.66821e-05;10 mA;
585.408;0.191315;78.8;395;-3.61938e-05;10 mA;
585.608;0.190521;79;396;-3.59497e-05;10 mA;
585.808;0.189697;79.2;397;-3.63159e-05;10 mA;
586.008;0.188904;79.4;398;-3.63159e-05;10 mA;
586.208;0.18811;79.6;399;-3.6377e-05;10 mA;
586.408;0.187317;79.8;400;-3.61023e-05;10 mA;
586.608;0.186523;80;401;-3.6499e-05;10 mA;
586.808;0.18573;80.2;402;-3.62549e-05;10 mA;
587.008;0.184937;80.4;403;-3.6438e-05;10 mA;
587.208;0.184143;80.6;404;-3.63159e-05;10 mA;
587.408;0.18335;80.8;405;-3.62244e-05;10 mA;
587.608;0.182556;81;406;-3.6438e-05;10 mA;
587.808;0.181763;81.2;407;-3.64685e-05;10 mA;
588.008;0.180969;81.4;408;-3.64075e-05;10 mA;
588.208;0.180176;81.6;409;-3.62244e-05;10 mA;
588.408;0.179352;81.8;410;-3.63159e-05;10 mA;
588.608;0.178558;82;411;-3.64075e-05;10 mA;
588.808;0.177734;82.2;412;-3.6499e-05;10 mA;
589.008;0.176941;82.4;413;-3.64075e-05;10 mA;
589.208;0.176147;82.6;414;-3.62854e-05;10 mA;
589.408;0.175354;82.8;415;-3.68652e-05;10 mA;
589.608;0.1745;83;416;-3.62244e-05;10 mA;
589.808;0.173676;83.2;417;-3.64075e-05;10 mA;
590.008;0.172882;83.4;418;-3.63159e-05;10 mA;
590.208;0.172058;83.6;419;-3.6438e-05;10 mA;
590.408;0.171265;83.8;420;-3.63464e-05;10 mA;
590.608;0.170471;84;421;-3.61938e-05;10 mA;
590.808;0.169647;84.2;422;-3.61023e-05;10 mA;
591.008;0.168823;84.4;423;-3.6499e-05;10 mA;
591.208;0.167999;84.6;424;-3.58887e-05;10 mA;
591.408;0.167175;84.8;425;-3.65601e-05;10 mA;
591.608;0.166382;85;426;-3.66516e-05;10 mA;
591.808;0.165558;85.2;427;-3.64685e-05;10 mA;
592.008;0.164764;85.4;428;-3.60718e-05;10 mA;
592.208;0.16391;85.6;429;-3.67126e-05;10 mA;
592.408;0.163116;85.8;430;-3.62549e-05;10 mA;
592.608;0.162262;86;431;-3.63464e-05;10 mA;
592.808;0.161438;86.2;432;-3.62244e-05;10 mA;
593.008;0.160645;86.4;433;-3.64685e-05;10 mA;
593.208;0.159821;86.6;434;-3.65295e-05;10 mA;
593.408;0.159027;86.8;435;-3.65906e-05;10 mA;
593.608;0.158203;87;436;-3.67737e-05;10 mA;
593.808;0.157379;87.2;437;-3.6438e-05;10 mA;
594.008;0.156586;87.4;438;-3.62854e-05;10 mA;
594.208;0.155792;87.6;439;-3.65601e-05;10 mA;
594.408;0.154968;87.8;440;-3.66211e-05;10 mA;
594.608;0.154175;88;441;-3.63464e-05;10 mA;
594.808;0.153351;88.2;442;-3.67126e-05;10 mA;
595.008;0.152527;88.4;443;-3.63464e-05;10 mA;
595.208;0.151703;88.6;444;-3.61938e-05;10 mA;
595.408;0.150909;88.8;445;-3.65906e-05;10 mA;
595.608;0.150085;89;446;-3.65601e-05;10 mA;
595.808;0.149292;89.2;447;-3.6499e-05;10 mA;
596.008;0.148468;89.4;448;-3.61023e-05;10 mA;
596.208;0.147644;89.6;449;-3.60718e-05;10 mA;
596.408;0.146851;89.8;450;-3.60718e-05;10 mA;
596.608;0.146057;90;451;-3.67126e-05;10 mA;
596.808;0.145203;90.2;452;-3.67126e-05;10 mA;
597.008;0.144409;90.4;453;-3.66516e-05;10 mA;
597.208;0.143616;90.6;454;-3.65295e-05;10 mA;
597.408;0.142792;90.8;455;-3.6377e-05;10 mA;
597.608;0.142029;91;456;-3.58887e-05;10 mA;
597.808;0.141205;91.2;457;-3.64075e-05;10 mA;
598.008;0.140411;91.4;458;-3.65906e-05;10 mA;
598.208;0.139618;91.6;459;-3.6377e-05;10 mA;
598.408;0.138794;91.8;460;-3.66516e-05;10 mA;
598.608;0.13797;92;461;-3.65295e-05;10 mA;
598.808;0.137177;92.2;462;-3.61633e-05;10 mA;
599.008;0.136353;92.4;463;-3.61328e-05;10 mA;
599.208;0.135559;92.6;464;-3.65601e-05;10 mA;
599.408;0.134766;92.8;465;-3.65601e-05;10 mA;
599.608;0.133972;93;466;-3.60718e-05;10 mA;
599.808;0.133148;93.2;467;-3.6377e-05;10 mA;
600.008;0.132385;93.4;468;-3.65906e-05;10 mA;
600.208;0.131561;93.6;469;-3.61633e-05;10 mA;
600.408;0.130737;93.8;470;-3.65601e-05;10 mA;
600.608;0.129974;94;471;-3.61938e-05;10 mA;
600.808;0.129181;94.2;472;-3.6377e-05;10 mA;
601.008;0.128387;94.4;473;-3.66821e-05;10 mA;
601.208;0.127563;94.6;474;-3.62854e-05;10 mA;
601.408;0.126801;94.8;475;-3.64075e-05;10 mA;
601.608;0.125977;95;476;-3.63159e-05;10 mA;
601.808;0.125183;95.2;477;-3.63159e-05;10 mA;
602.008;0.12439;95.4;478;-3.61328e-05;10 mA;
602.208;0.123596;95.6;479;-3.6438e-05;10 mA;
602.408;0.122803;95.8;480;-3.61938e-05;10 mA;
602.608;0.12204;96;481;-3.67126e-05;10 mA;
602.808;0.121246;96.2;482;-3.63464e-05;10 mA;
603.008;0.120453;96.4;483;-3.64075e-05;10 mA;
603.208;0.119659;96.6;484;-3.65601e-05;10 mA;
603.408;0.118896;96.8;485;-3.66211e-05;10 mA;
603.608;0.118103;97;486;-3.63464e-05;10 mA;
603.808;0.11731;97.2;487;-3.63159e-05;10 mA;
604.008;0.116516;97.4;488;-3.65906e-05;10 mA;
604.208;0.115723;97.6;489;-3.63464e-05;10 mA;
604.408;0.11496;97.8;490;-3.66821e-05;10 mA;
604.608;0.114166;98;491;-3.6438e-05;10 mA;
604.808;0.113373;98.2;492;-3.66211e-05;10 mA;
605.008;0.112579;98.4;493;-3.62549e-05;10 mA;
605.208;0.111816;98.6;494;-3.61938e-05;10 mA;
605.408;0.111023;98.8;495;-3.65906e-05;10 mA;
605.608;0.110291;99;496;-3.63464e-05;10 mA;
605.808;0.109528;99.2;497;-3.64685e-05;10 mA;
606.008;0.108765;99.4;498;-3.63159e-05;10 mA;
606.208;0.107971;99.6;499;-3.62854e-05;10 mA;
606.408;0.107208;99.8;500;-3.65295e-05;10 mA;
606.608;0.106445;100;501;-3.65295e-05;10 mA;
606.808;0.105682;100.2;502;-3.66211e-05;10 mA;
607.008;0.104919;100.4;503;-3.64075e-05;10 mA;
607.208;0.104126;100.6;504;-3.64075e-05;10 mA;
607.408;0.103394;100.8;505;-3.65295e-05;10 mA;
607.608;0.1026;101;506;-3.70178e-05;10 mA;
607.808;0.101868;101.2;507;-3.6438e-05;10 mA;
608.008;0.101105;101.4;508;-3.62549e-05;10 mA;
608.208;0.100311;101.6;509;-3.65295e-05;10 mA;
608.408;0.0995789;101.8;510;-3.6438e-05;10 mA;
608.608;0.0988159;102;511;-3.65295e-05;10 mA;
608.808;0.098053;102.2;512;-3.64075e-05;10 mA;
609.008;0.0973206;102.4;513;-3.6438e-05;10 mA;
609.208;0.0965576;102.6;514;-3.61938e-05;10 mA;
609.408;0.0958252;102.8;515;-3.67432e-05;10 mA;
609.608;0.0950623;103;516;-3.61023e-05;10 mA;
609.808;0.0943298;103.2;517;-3.60718e-05;10 mA;
610.008;0.0935669;103.4;518;-3.6377e-05;10 mA;
610.208;0.092804;103.6;519;-3.66211e-05;10 mA;
610.408;0.0920715;103.8;520;-3.63159e-05;10 mA;
610.608;0.0913391;104;521;-3.63464e-05;10 mA;
610.808;0.0906067;104.2;522;-3.6499e-05;10 mA;
611.008;0.0898743;104.4;523;-3.63159e-05;10 mA;
611.208;0.0891418;104.6;524;-3.62244e-05;10 mA;
611.408;0.0884399;104.8;525;-3.62549e-05;10 mA;
611.608;0.0877075;105;526;-3.64685e-05;10 mA;
611.808;0.0870056;105.2;527;-3.6499e-05;10 mA;
612.008;0.0862732;105.4;528;-3.67737e-05;10 mA;
612.208;0.0855713;105.6;529;-3.65295e-05;10 mA;
612.408;0.0848389;105.8;530;-3.66516e-05;10 mA;
612.608;0.0841064;106;531;-3.64685e-05;10 mA;
612.808;0.0834045;106.2;532;-3.62244e-05;10 mA;
613.008;0.0826416;106.4;533;-3.63464e-05;10 mA;
613.208;0.0819397;106.6;534;-3.62549e-05;10 mA;
613.408;0.0812073;106.8;535;-3.6438e-05;10 mA;
613.608;0.0805054;107;536;-3.65906e-05;10 mA;
613.808;0.0797729;107.2;537;-3.60718e-05;10 mA;
614.008;0.0790405;107.4;538;-3.63464e-05;10 mA;
614.208;0.0783386;107.6;539;-3.6377e-05;10 mA;
614.408;0.0776062;107.8;540;-3.62244e-05;10 mA;
614.608;0.0768738;108;541;-3.64075e-05;10 mA;
614.808;0.0761719;108.2;542;-3.60718e-05;10 mA;
615.008;0.0754089;108.4;543;-3.6499e-05;10 mA;
615.208;0.074707;108.6;544;-3.6438e-05;10 mA;
615.408;0.0740356;108.8;545;-3.66516e-05;10 mA;
615.608;0.0733643;109;546;-3.62854e-05;10 mA;
615.808;0.0726318;109.2;547;-3.63464e-05;10 mA;
616.008;0.0719299;109.4;548;-3.62854e-05;10 mA;
616.208;0.0712585;109.6;549;-3.67126e-05;10 mA;
616.408;0.0705566;109.8;550;-3.61328e-05;10 mA;
616.608;0.0698547;110;551;-3.6438e-05;10 mA;
616.808;0.0691528;110.2;552;-3.62549e-05;10 mA;
617.008;0.0684509;110.4;553;-3.67432e-05;10 mA;
617.208;0.0677795;110.6;554;-3.63464e-05;10 mA;
617.408;0.0670776;110.8;555;-3.6438e-05;10 mA;
617.608;0.0663757;111;556;-3.65906e-05;10 mA;
617.808;0.0656738;111.2;557;-3.65295e-05;10 mA;
618.008;0.0649719;111.4;558;-3.68652e-05;10 mA;
618.208;0.06427;111.6;559;-3.64075e-05;10 mA;
618.408;0.0635986;111.8;560;-3.6499e-05;10 mA;
618.608;0.0629272;112;561;-3.61633e-05;10 mA;
618.808;0.0622559;112.2;562;-3.66516e-05;10 mA;
619.008;0.061554;112.4;563;-3.64075e-05;10 mA;
619.208;0.0608826;112.6;564;-3.65906e-05;10 mA;
619.408;0.0602112;112.8;565;-3.61633e-05;10 mA;
619.608;0.0595398;113;566;-3.64685e-05;10 mA;
619.808;0.0588379;113.2;567;-3.6499e-05;10 mA;
620.008;0.0581665;113.4;568;-3.66211e-05;10 mA;
620.208;0.0574951;113.6;569;-3.6499e-05;10 mA;
620.408;0.0567932;113.8;570;-3.61633e-05;10 mA;
620.608;0.0561523;114;571;-3.65906e-05;10 mA;
620.808;0.055481;114.2;572;-3.62244e-05;10 mA;
621.008;0.0548096;114.4;573;-3.67432e-05;10 mA;
621.208;0.0541077;114.6;574;-3.64075e-05;10 mA;
621.408;0.0534363;114.8;575;-3.62854e-05;10 mA;
621.608;0.0527649;115;576;-3.59802e-05;10 mA;
621.808;0.0520935;115.2;577;-3.62244e-05;10 mA;
622.008;0.0514221;115.4;578;-3.61633e-05;10 mA;
622.208;0.0507202;115.6;579;-3.64685e-05;10 mA;
622.408;0.0500488;115.8;580;-3.63464e-05;10 mA;
622.608;0.0493744;116;581;-3.61633e-05;10 mA;
622.808;0.0487061;116.2;582;-3.62549e-05;10 mA;
623.008;0.0480499;116.4;583;-3.63159e-05;10 mA;
623.208;0.047403;116.6;584;-3.62854e-05;10 mA;
623.408;0.0467621;116.8;585;-3.6438e-05;10 mA;
623.608;0.0461365;117;586;-3.6499e-05;10 mA;
623.808;0.0454834;117.2;587;-3.6377e-05;10 mA;
624.008;0.0448456;117.4;588;-3.62244e-05;10 mA;
624.208;0.0441833;117.6;589;-3.63464e-05;10 mA;
624.408;0.0435272;117.8;590;-3.65601e-05;10 mA;
624.608;0.042868;118;591;-3.63464e-05;10 mA;
624.808;0.0422546;118.2;592;-3.64685e-05;10 mA;
625.008;0.0416168;118.4;593;-3.61938e-05;10 mA;
625.208;0.0409973;118.6;594;-3.61938e-05;10 mA;
625.408;0.0403473;118.8;595;-3.62549e-05;10 mA;
625.608;0.0397247;119;596;-3.6377e-05;10 mA;
625.808;0.0390808;119.2;597;-3.65295e-05;10 mA;
626.008;0.0384369;119.4;598;-3.67126e-05;10 mA;
626.208;0.0378143;119.6;599;-3.6377e-05;10 mA;
626.408;0.0372101;119.8;600;-3.63159e-05;10 mA;
626.608;0.0365875;120;601;-3.66516e-05;10 mA;
626.808;0.0359528;120.2;602;-3.64685e-05;10 mA;
627.008;0.0353516;120.4;603;-3.64075e-05;10 mA;
627.208;0.0347229;120.6;604;-3.61633e-05;10 mA;
627.408;0.0341156;120.8;605;-3.68958e-05;10 mA;
627.608;0.0335083;121;606;-3.66211e-05;10 mA;
627.808;0.0328796;121.2;607;-3.6438e-05;10 mA;
628.008;0.0322815;121.4;608;-3.62244e-05;10 mA;
628.208;0.0316925;121.6;609;-3.63464e-05;10 mA;
628.408;0.0310699;121.8;610;-3.6499e-05;10 mA;
628.608;0.0304382;122;611;-3.66211e-05;10 mA;
628.808;0.0298004;122.2;612;-3.67432e-05;10 mA;
629.008;0.0291687;122.4;613;-3.65601e-05;10 mA;
629.208;0.0285492;122.6;614;-3.6438e-05;10 mA;
629.408;0.0279541;122.8;615;-3.65601e-05;10 mA;
629.608;0.0273285;123;616;-3.6499e-05;10 mA;
629.808;0.0267151;123.2;617;-3.67126e-05;10 mA;
630.008;0.0261322;123.4;618;-3.6438e-05;10 mA;
630.208;0.0255127;123.6;619;-3.65601e-05;10 mA;
630.408;0.0249329;123.8;620;-3.6377e-05;10 mA;
630.608;0.0243256;124;621;-3.67126e-05;10 mA;
630.808;0.0237122;124.2;622;-3.65601e-05;10 mA;
631.008;0.0231201;124.4;623;-3.65601e-05;10 mA;
631.208;0.0225372;124.6;624;-3.67126e-05;10 mA;
631.408;0.0219238;124.8;625;-3.63159e-05;10 mA;
631.608;0.0213409;125;626;-3.63159e-05;10 mA;
631.808;0.020755;125.2;627;-3.6377e-05;10 mA;
632.008;0.0201782;125.4;628;-3.6377e-05;10 mA;
632.208;0.0195831;125.6;629;-3.61633e-05;10 mA;
632.408;0.0189911;125.8;630;-3.62244e-05;10 mA;
632.608;0.0184174;126;631;-3.67126e-05;10 mA;
632.808;0.0178345;126.2;632;-3.64685e-05;10 mA;
633.008;0.0172577;126.4;633;-3.62854e-05;10 mA;
633.208;0.0166748;126.6;634;-3.64075e-05;10 mA;
633.408;0.0160553;126.8;635;-3.62549e-05;10 mA;
633.608;0.0154724;127;636;-3.67432e-05;10 mA;
633.808;0.0148987;127.2;637;-3.63159e-05;10 mA;
634.008;0.0143372;127.4;638;-3.67126e-05;10 mA;
634.208;0.0137726;127.6;639;-3.68347e-05;10 mA;
634.408;0.0131958;127.8;640;-3.6377e-05;10 mA;
634.608;0.0126434;128;641;-3.65601e-05;10 mA;
634.808;0.0120789;128.2;642;-3.6438e-05;10 mA;
635.008;0.0114838;128.4;643;-3.64075e-05;10 mA;
635.208;0.0108917;128.6;644;-3.64685e-05;10 mA;
635.408;0.0103058;128.8;645;-3.62854e-05;10 mA;
635.608;0.00973511;129;646;-3.67126e-05;10 mA;
635.808;0.00918884;129.2;647;-3.64075e-05;10 mA;
636.008;0.00861511;129.4;648;-3.65906e-05;10 mA;
636.208;0.0080719;129.6;649;-3.67126e-05;10 mA;
636.408;0.00750427;129.8;650;-3.6438e-05;10 mA;
636.608;0.00694885;130;651;-3.65601e-05;10 mA;
636.808;0.00639038;130.2;652;-3.6377e-05;10 mA;
637.008;0.00584106;130.4;653;-3.65295e-05;10 mA;
637.208;0.00528564;130.6;654;-3.65295e-05;10 mA;
637.408;0.00469971;130.8;655;-3.6499e-05;10 mA;
637.608;0.00415955;131;656;-3.65601e-05;10 mA;
637.808;0.00364075;131.2;657;-3.64075e-05;10 mA;
638.008;0.00306702;131.4;658;-3.66211e-05;10 mA;
638.208;0.00252991;131.6;659;-3.6499e-05;10 mA;
638.408;0.00198059;131.8;660;-3.65295e-05;10 mA;
638.608;0.00145874;132;661;-3.63464e-05;10 mA;
638.808;0.000918579;132.2;662;-3.61938e-05;10 mA;
639.008;0.000363159;132.4;663;-3.64075e-05;10 mA;
639.208;-0.000189209;132.6;664;-3.61633e-05;10 mA;
639.408;-0.000717163;132.8;665;-3.6377e-05;10 mA;
639.608;-0.00125122;133;666;-3.66211e-05;10 mA;
639.808;-0.00176697;133.2;667;-3.66516e-05;10 mA;
640.008;-0.00231018;133.4;668;-3.65601e-05;10 mA;
640.208;-0.00285034;133.6;669;-3.66211e-05;10 mA;
640.408;-0.00336609;133.8;670;-3.64075e-05;10 mA;
640.608;-0.00387573;134;671;-3.6377e-05;10 mA;
640.808;-0.00441589;134.2;672;-3.65601e-05;10 mA;
641.008;-0.00491943;134.4;673;-3.6499e-05;10 mA;
641.208;-0.00544434;134.6;674;-3.66211e-05;10 mA;
641.408;-0.00597534;134.8;675;-3.67737e-05;10 mA;
641.608;-0.0065033;135;676;-3.66516e-05;10 mA;
641.808;-0.00699463;135.2;677;-3.64685e-05;10 mA;
642.008;-0.00750122;135.4;678;-3.68347e-05;10 mA;
642.208;-0.00799866;135.6;679;-3.65601e-05;10 mA;
642.408;-0.00849609;135.8;680;-3.65906e-05;10 mA;
642.608;-0.00900574;136;681;-3.68042e-05;10 mA;
642.808;-0.00953674;136.2;682;-3.65906e-05;10 mA;
643.008;-0.0100677;136.4;683;-3.66211e-05;10 mA;
643.208;-0.0105591;136.6;684;-3.66211e-05;10 mA;
643.408;-0.0110596;136.8;685;-3.65906e-05;10 mA;
643.608;-0.0115784;137;686;-3.63159e-05;10 mA;
643.808;-0.0120605;137.2;687;-3.66211e-05;10 mA;
644.008;-0.0125854;137.4;688;-3.66516e-05;10 mA;
644.208;-0.0130829;137.6;689;-3.66516e-05;10 mA;
644.408;-0.0135742;137.8;690;-3.66516e-05;10 mA;
644.608;-0.0140778;138;691;-3.6377e-05;10 mA;
644.808;-0.0145966;138.2;692;-3.6499e-05;10 mA;
645.008;-0.0151031;138.4;693;-3.62549e-05;10 mA;
645.208;-0.0156067;138.6;694;-3.64685e-05;10 mA;
645.408;-0.0160767;138.8;695;-3.6377e-05;10 mA;
645.608;-0.0165833;139;696;-3.68042e-05;10 mA;
645.808;-0.017038;139.2;697;-3.61938e-05;10 mA;
646.008;-0.0174957;139.4;698;-3.64075e-05;10 mA;
646.208;-0.017984;139.6;699;-3.6438e-05;10 mA;
646.408;-0.0184631;139.8;700;-3.66516e-05;10 mA;
646.608;-0.0189667;140;701;-3.65906e-05;10 mA;
646.808;-0.0194336;140.2;702;-3.64075e-05;10 mA;
647.008;-0.0199066;140.4;703;-3.64075e-05;10 mA;
647.208;-0.0204071;140.6;704;-3.66821e-05;10 mA;
647.408;-0.0208893;140.8;705;-3.63159e-05;10 mA;
647.608;-0.0213837;141;706;-3.64685e-05;10 mA;
647.808;-0.0218414;141.2;707;-3.69263e-05;10 mA;
648.008;-0.0223083;141.4;708;-3.67126e-05;10 mA;
648.208;-0.02276;141.6;709;-3.65295e-05;10 mA;
648.408;-0.023233;141.8;710;-3.63159e-05;10 mA;
648.608;-0.0237091;142;711;-3.6438e-05;10 mA;
648.808;-0.0241943;142.2;712;-3.64685e-05;10 mA;
649.008;-0.0246857;142.4;713;-3.65906e-05;10 mA;
649.208;-0.0251465;142.6;714;-3.67432e-05;10 mA;
649.408;-0.0256165;142.8;715;-3.62549e-05;10 mA;
649.608;-0.0260773;143;716;-3.6499e-05;10 mA;
649.808;-0.0265289;143.2;717;-3.61023e-05;10 mA;
650.008;-0.0270081;143.4;718;-3.64075e-05;10 mA;
650.208;-0.0274658;143.6;719;-3.6499e-05;10 mA;
650.408;-0.0279175;143.8;720;-3.66516e-05;10 mA;
650.608;-0.0283905;144;721;-3.66516e-05;10 mA;
650.808;-0.0288635;144.2;722;-3.6438e-05;10 mA;
651.008;-0.0293121;144.4;723;-3.65295e-05;10 mA;
651.208;-0.0297607;144.6;724;-3.63464e-05;10 mA;
651.408;-0.0302216;144.8;725;-3.61633e-05;10 mA;
651.608;-0.0306854;145;726;-3.65601e-05;10 mA;
651.808;-0.0310944;145.2;727;-3.65295e-05;10 mA;
652.008;-0.031543;145.4;728;-3.69263e-05;10 mA;
652.208;-0.0319733;145.6;729;-3.68652e-05;10 mA;
652.408;-0.0324127;145.8;730;-3.6499e-05;10 mA;
652.608;-0.032843;146;731;-3.65906e-05;10 mA;
652.808;-0.0332764;146.2;732;-3.63464e-05;10 mA;
653.008;-0.0337067;146.4;733;-3.65601e-05;10 mA;
653.208;-0.0341278;146.6;734;-3.6499e-05;10 mA;
653.408;-0.0345673;146.8;735;-3.68652e-05;10 mA;
653.608;-0.0349762;147;736;-3.64685e-05;10 mA;
653.808;-0.0354187;147.2;737;-3.6438e-05;10 mA;
654.008;-0.0358704;147.4;738;-3.64685e-05;10 mA;
654.208;-0.0362854;147.6;739;-3.62854e-05;10 mA;
654.408;-0.0367126;147.8;740;-3.65906e-05;10 mA;
654.608;-0.0371124;148;741;-3.61023e-05;10 mA;
654.808;-0.037558;148.2;742;-3.64685e-05;10 mA;
655.008;-0.0379669;148.4;743;-3.66211e-05;10 mA;
655.208;-0.0383942;148.6;744;-3.68652e-05;10 mA;
655.408;-0.0387939;148.8;745;-3.66211e-05;10 mA;
655.608;-0.0392029;149;746;-3.64685e-05;10 mA;
655.808;-0.0396179;149.2;747;-3.62854e-05;10 mA;
656.008;-0.0399933;149.4;748;-3.6377e-05;10 mA;
656.208;-0.0404022;149.6;749;-3.67126e-05;10 mA;
656.408;-0.0407898;149.8;750;-3.66516e-05;10 mA;
656.608;-0.0411835;150;751;-3.6499e-05;10 mA;
656.808;-0.0415863;150.2;752;-3.64075e-05;10 mA;
657.008;-0.0419556;150.4;753;-3.6377e-05;10 mA;
657.208;-0.0423523;150.6;754;-3.67432e-05;10 mA;
657.408;-0.0427521;150.8;755;-3.66211e-05;10 mA;
657.608;-0.0431274;151;756;-3.64685e-05;10 mA;
657.808;-0.043512;151.2;757;-3.62549e-05;10 mA;
658.008;-0.0438843;151.4;758;-3.67737e-05;10 mA;
658.208;-0.044281;151.6;759;-3.65601e-05;10 mA;
658.408;-0.0446594;151.8;760;-3.65906e-05;10 mA;
658.608;-0.0450653;152;761;-3.6438e-05;10 mA;
658.808;-0.0454346;152.2;762;-3.68958e-05;10 mA;
659.008;-0.045813;152.4;763;-3.66211e-05;10 mA;
659.208;-0.0461731;152.6;764;-3.63159e-05;10 mA;
659.408;-0.0465637;152.8;765;-3.65906e-05;10 mA;
659.608;-0.046936;153;766;-3.64685e-05;10 mA;
659.808;-0.0473145;153.2;767;-3.67126e-05;10 mA;
660.008;-0.047699;153.4;768;-3.66821e-05;10 mA;
660.208;-0.0480896;153.6;769;-3.6438e-05;10 mA;
660.408;-0.0484619;153.8;770;-3.63159e-05;10 mA;
660.608;-0.048819;154;771;-3.62854e-05;10 mA;
660.808;-0.0492065;154.2;772;-3.65295e-05;10 mA;
661.008;-0.0495667;154.4;773;-3.64685e-05;10 mA;
661.208;-0.0499573;154.6;774;-3.68042e-05;10 mA;
661.408;-0.050293;154.8;775;-3.6438e-05;10 mA;
661.608;-0.0506592;155;776;-3.67432e-05;10 mA;
661.808;-0.0510254;155.2;777;-3.61328e-05;10 mA;
662.008;-0.0514221;155.4;778;-3.64685e-05;10 mA;
662.208;-0.0517578;155.6;779;-3.61328e-05;10 mA;
662.408;-0.0520935;155.8;780;-3.65906e-05;10 mA;
662.608;-0.0524292;156;781;-3.66821e-05;10 mA;
662.808;-0.0528259;156.2;782;-3.67126e-05;10 mA;
663.008;-0.0531616;156.4;783;-3.63159e-05;10 mA;
663.208;-0.0534973;156.6;784;-3.65601e-05;10 mA;
663.408;-0.0538635;156.8;785;-3.62549e-05;10 mA;
663.608;-0.0542297;157;786;-3.63464e-05;10 mA;
663.808;-0.0545654;157.2;787;-3.66821e-05;10 mA;
664.008;-0.0549316;157.4;788;-3.6499e-05;10 mA;
664.208;-0.0552673;157.6;789;-3.67432e-05;10 mA;
664.408;-0.0556335;157.8;790;-3.6377e-05;10 mA;
664.608;-0.0559692;158;791;-3.63159e-05;10 mA;
664.808;-0.0562744;158.2;792;-3.64685e-05;10 mA;
665.008;-0.0566101;158.4;793;-3.63159e-05;10 mA;
665.208;-0.0569458;158.6;794;-3.65295e-05;10 mA;
665.408;-0.057251;158.8;795;-3.67126e-05;10 mA;
665.608;-0.0576172;159;796;-3.62854e-05;10 mA;
665.808;-0.0579834;159.2;797;-3.65906e-05;10 mA;
666.008;-0.0583191;159.4;798;-3.62854e-05;10 mA;
666.208;-0.0586243;159.6;799;-3.6377e-05;10 mA;
666.408;-0.0589294;159.8;800;-3.6377e-05;10 mA;
666.608;-0.0592651;160;801;-3.69263e-05;10 mA;
666.808;-0.0595703;160.2;802;-3.64075e-05;10 mA;
667.008;-0.0598755;160.4;803;-3.64685e-05;10 mA;
667.208;-0.0602112;160.6;804;-3.65295e-05;10 mA;
667.408;-0.0605469;160.8;805;-3.66821e-05;10 mA;
667.608;-0.0608826;161;806;-3.67432e-05;10 mA;
667.808;-0.0611877;161.2;807;-3.62854e-05;10 mA;
668.008;-0.0614929;161.4;808;-3.63464e-05;10 mA;
668.208;-0.0617981;161.6;809;-3.62549e-05;10 mA;
668.408;-0.0621338;161.8;810;-3.64075e-05;10 mA;
668.608;-0.062439;162;811;-3.64685e-05;10 mA;
668.808;-0.0627441;162.2;812;-3.64685e-05;10 mA;
669.008;-0.0630493;162.4;813;-3.65906e-05;10 mA;
669.208;-0.0633545;162.6;814;-3.64685e-05;10 mA;
669.408;-0.0636597;162.8;815;-3.66516e-05;10 mA;
669.608;-0.0639648;163;816;-3.66211e-05;10 mA;
669.808;-0.064209;163.2;817;-3.6438e-05;10 mA;
670.008;-0.0645142;163.4;818;-3.66516e-05;10 mA;
670.208;-0.0648193;163.6;819;-3.66211e-05;10 mA;
670.408;-0.0651245;163.8;820;-3.66211e-05;10 mA;
670.608;-0.0654297;164;821;-3.59802e-05;10 mA;
670.808;-0.0657043;164.2;822;-3.6438e-05;10 mA;
671.008;-0.0660095;164.4;823;-3.68042e-05;10 mA;
671.208;-0.0663147;164.6;824;-3.65601e-05;10 mA;
671.408;-0.0665894;164.8;825;-3.6499e-05;10 mA;
671.608;-0.066925;165;826;-3.67126e-05;10 mA;
671.808;-0.0672302;165.2;827;-3.66211e-05;10 mA;
672.008;-0.0675049;165.4;828;-3.67126e-05;10 mA;
672.208;-0.0677795;165.6;829;-3.6499e-05;10 mA;
672.408;-0.0680542;165.8;830;-3.63464e-05;10 mA;
672.608;-0.0683594;166;831;-3.64685e-05;10 mA;
672.808;-0.068634;166.2;832;-3.66516e-05;10 mA;
673.008;-0.0689392;166.4;833;-3.67432e-05;10 mA;
673.208;-0.0692444;166.6;834;-3.65295e-05;10 mA;
673.408;-0.069519;166.8;835;-3.63464e-05;10 mA;
673.608;-0.0698242;167;836;-3.68958e-05;10 mA;
673.808;-0.0700989;167.2;837;-3.6499e-05;10 mA;
674.008;-0.0703735;167.4;838;-3.65906e-05;10 mA;
674.208;-0.0706177;167.6;839;-3.6499e-05;10 mA;
674.408;-0.0708923;167.8;840;-3.67126e-05;10 mA;
674.608;-0.071167;168;841;-3.6499e-05;10 mA;
674.808;-0.0714417;168.2;842;-3.69263e-05;10 mA;
675.008;-0.0716858;168.4;843;-3.63464e-05;10 mA;
675.208;-0.071991;168.6;844;-3.6499e-05;10 mA;
675.408;-0.0722351;168.8;845;-3.65601e-05;10 mA;
675.608;-0.0725098;169;846;-3.67126e-05;10 mA;
675.808;-0.0727539;169.2;847;-3.68042e-05;10 mA;
676.008;-0.072998;169.4;848;-3.6438e-05;10 mA;
676.208;-0.0733032;169.6;849;-3.65601e-05;10 mA;
676.408;-0.0735474;169.8;850;-3.67432e-05;10 mA;
676.608;-0.073822;170;851;-3.68652e-05;10 mA;
676.808;-0.0740967;170.2;852;-3.63159e-05;10 mA;
677.008;-0.0743408;170.4;853;-3.6438e-05;10 mA;
677.208;-0.0746155;170.6;854;-3.65295e-05;10 mA;
677.408;-0.0748596;170.8;855;-3.66211e-05;10 mA;
677.608;-0.0751038;171;856;-3.70178e-05;10 mA;
677.808;-0.0753479;171.2;857;-3.66821e-05;10 mA;
678.008;-0.075592;171.4;858;-3.65295e-05;10 mA;
678.208;-0.0758667;171.6;859;-3.64685e-05;10 mA;
678.408;-0.0761108;171.8;860;-3.62549e-05;10 mA;
678.608;-0.0763855;172;861;-3.62549e-05;10 mA;
678.808;-0.0766602;172.2;862;-3.67126e-05;10 mA;
679.008;-0.0769043;172.4;863;-3.64685e-05;10 mA;
679.208;-0.0770874;172.6;864;-3.65906e-05;10 mA;
679.408;-0.0773315;172.8;865;-3.61633e-05;10 mA;
679.608;-0.0775757;173;866;-3.68042e-05;10 mA;
679.808;-0.0778503;173.2;867;-3.68652e-05;10 mA;
680.008;-0.0780945;173.4;868;-3.6438e-05;10 mA;
680.208;-0.0783081;173.6;869;-3.65906e-05;10 mA;
680.408;-0.0785828;173.8;870;-3.68652e-05;10 mA;
680.608;-0.0788269;174;871;-3.67126e-05;10 mA;
680.808;-0.0790405;174.2;872;-3.66516e-05;10 mA;
681.008;-0.0792847;174.4;873;-3.68652e-05;10 mA;
681.208;-0.0795288;174.6;874;-3.66821e-05;10 mA;
681.408;-0.0797424;174.8;875;-3.66821e-05;10 mA;
681.608;-0.0799866;175;876;-3.6499e-05;10 mA;
681.808;-0.0802307;175.2;877;-3.66516e-05;10 mA;
682.008;-0.0804443;175.4;878;-3.6499e-05;10 mA;
682.208;-0.0806885;175.6;879;-3.6377e-05;10 mA;
682.408;-0.0809631;175.8;880;-3.62854e-05;10 mA;
682.608;-0.0811768;176;881;-3.6499e-05;10 mA;
682.808;-0.0814209;176.2;882;-3.65295e-05;10 mA;
683.008;-0.081665;176.4;883;-3.66211e-05;10 mA;
683.208;-0.0819397;176.6;884;-3.65295e-05;10 mA;
683.408;-0.0821838;176.8;885;-3.66821e-05;10 mA;
683.608;-0.0823975;177;886;-3.65906e-05;10 mA;
683.808;-0.0826416;177.2;887;-3.66516e-05;10 mA;
684.008;-0.0828552;177.4;888;-3.61938e-05;10 mA;
684.208;-0.0830688;177.6;889;-3.65295e-05;10 mA;
684.408;-0.0832825;177.8;890;-3.69568e-05;10 mA;
684.608;-0.0835266;178;891;-3.64075e-05;10 mA;
684.808;-0.0837402;178.2;892;-3.6499e-05;10 mA;
685.008;-0.0839844;178.4;893;-3.67737e-05;10 mA;
685.208;-0.0842285;178.6;894;-3.68652e-05;10 mA;
685.408;-0.0844421;178.8;895;-3.66516e-05;10 mA;
685.608;-0.0846863;179;896;-3.62854e-05;10 mA;
685.808;-0.0848999;179.2;897;-3.63464e-05;10 mA;
686.008;-0.0851135;179.4;898;-3.67737e-05;10 mA;
686.208;-0.0853271;179.6;899;-3.67737e-05;10 mA;
686.408;-0.0855103;179.8;900;-3.66516e-05;10 mA;
686.608;-0.0857544;180;901;-3.65601e-05;10 mA;
686.808;-0.085968;180.2;902;-3.67432e-05;10 mA;
687.008;-0.0861816;180.4;903;-3.64685e-05;10 mA;
687.208;-0.0863647;180.6;904;-3.65906e-05;10 mA;
687.408;-0.0865784;180.8;905;-3.64075e-05;10 mA;
687.608;-0.086792;181;906;-3.61938e-05;10 mA;
687.808;-0.0869751;181.2;907;-3.63159e-05;10 mA;
688.008;-0.0872192;181.4;908;-3.6438e-05;10 mA;
688.208;-0.0874023;181.6;909;-3.68652e-05;10 mA;
688.408;-0.0876465;181.8;910;-3.67737e-05;10 mA;
688.608;-0.0878296;182;911;-3.64685e-05;10 mA;
688.808;-0.0880432;182.2;912;-3.6499e-05;10 mA;
689.008;-0.0882568;182.4;913;-3.68042e-05;10 mA;
689.208;-0.0884705;182.6;914;-3.64075e-05;10 mA;
689.408;-0.0886841;182.8;915;-3.62244e-05;10 mA;
689.608;-0.0888672;183;916;-3.62549e-05;10 mA;
689.808;-0.0890808;183.2;917;-3.6499e-05;10 mA;
690.008;-0.0892639;183.4;918;-3.65601e-05;10 mA;
690.208;-0.0894775;183.6;919;-3.6499e-05;10 mA;
690.408;-0.0896606;183.8;920;-3.6438e-05;10 mA;
690.608;-0.0898743;184;921;-3.68652e-05;10 mA;
690.808;-0.0900574;184.2;922;-3.64075e-05;10 mA;
691.008;-0.090271;184.4;923;-3.66821e-05;10 mA;
691.208;-0.0904846;184.6;924;-3.62244e-05;10 mA;
691.408;-0.0906982;184.8;925;-3.65601e-05;10 mA;
691.608;-0.0908813;185;926;-3.6499e-05;10 mA;
691.808;-0.0910645;185.2;927;-3.6499e-05;10 mA;
692.008;-0.0912781;185.4;928;-3.63464e-05;10 mA;
692.208;-0.0914917;185.6;929;-3.66821e-05;10 mA;
692.408;-0.0916748;185.8;930;-3.6499e-05;10 mA;
692.608;-0.0918884;186;931;-3.6499e-05;10 mA;
692.808;-0.0920715;186.2;932;-3.65906e-05;10 mA;
693.008;-0.0923157;186.4;933;-3.66516e-05;10 mA;
693.208;-0.0924988;186.6;934;-3.66211e-05;10 mA;
693.408;-0.0926819;186.8;935;-3.64075e-05;10 mA;
693.608;-0.092865;187;936;-3.66516e-05;10 mA;
693.808;-0.0930481;187.2;937;-3.62244e-05;10 mA;
694.008;-0.0932007;187.4;938;-3.67737e-05;10 mA;
694.208;-0.0933838;187.6;939;-3.68347e-05;10 mA;
694.408;-0.0935669;187.8;940;-3.65295e-05;10 mA;
694.608;-0.09375;188;941;-3.67432e-05;10 mA;
694.808;-0.0939331;188.2;942;-3.6499e-05;10 mA;
695.008;-0.0941162;188.4;943;-3.62549e-05;10 mA;
695.208;-0.0942993;188.6;944;-3.67432e-05;10 mA;
695.408;-0.0944824;188.8;945;-3.65601e-05;10 mA;
695.608;-0.094696;189;946;-3.68347e-05;10 mA;
695.808;-0.0948792;189.2;947;-3.6377e-05;10 mA;
696.008;-0.0950623;189.4;948;-3.6499e-05;10 mA;
696.208;-0.0952454;189.6;949;-3.67126e-05;10 mA;
696.408;-0.0954285;189.8;950;-3.65295e-05;10 mA;
696.608;-0.0955811;190;951;-3.66821e-05;10 mA;
696.808;-0.0957947;190.2;952;-3.6438e-05;10 mA;
697.008;-0.0959778;190.4;953;-3.6499e-05;10 mA;
697.208;-0.0961304;190.6;954;-3.65601e-05;10 mA;
697.408;-0.0963135;190.8;955;-3.65295e-05;10 mA;
697.608;-0.0965576;191;956;-3.64685e-05;10 mA;
697.808;-0.0967102;191.2;957;-3.65906e-05;10 mA;
698.008;-0.0968933;191.4;958;-3.60413e-05;10 mA;
698.208;-0.0971069;191.6;959;-3.67737e-05;10 mA;
698.408;-0.0972595;191.8;960;-3.64685e-05;10 mA;
698.608;-0.0974426;192;961;-3.65601e-05;10 mA;
698.808;-0.0975952;192.2;962;-3.69873e-05;10 mA;
699.008;-0.0977783;192.4;963;-3.68042e-05;10 mA;
699.208;-0.0979309;192.6;964;-3.63159e-05;10 mA;
699.408;-0.098114;192.8;965;-3.66211e-05;10 mA;
699.608;-0.0982361;193;966;-3.66516e-05;10 mA;
699.808;-0.0983887;193.2;967;-3.63159e-05;10 mA;
700.008;-0.0985413;193.4;968;-3.6438e-05;10 mA;
700.208;-0.0986938;193.6;969;-3.66821e-05;10 mA;
700.408;-0.098877;193.8;970;-3.62854e-05;10 mA;
700.608;-0.0990295;194;971;-3.67126e-05;10 mA;
700.808;-0.0991821;194.2;972;-3.65906e-05;10 mA;
701.008;-0.0993347;194.4;973;-3.69568e-05;10 mA;
701.208;-0.0994873;194.6;974;-3.68958e-05;10 mA;
701.408;-0.0996704;194.8;975;-3.65295e-05;10 mA;
701.608;-0.0997925;195;976;-3.66211e-05;10 mA;
701.808;-0.0999146;195.2;977;-3.6499e-05;10 mA;
702.008;-0.100067;195.4;978;-3.65601e-05;10 mA;WE(1).Potential < -0,1 V
702.208;-0.10025;195.6;979;-3.65906e-05;10 mA;WE(1).Potential < -0,1 V
702.408;-0.100403;195.8;980;-3.64685e-05;10 mA;WE(1).Potential < -0,1 V
702.608;-0.100525;196;981;-3.65906e-05;10 mA;WE(1).Potential < -0,1 V