File: Mxene1-1Ag-DESCARGA2.txt
Time (s);WE(1).Potential (V);Corrected time (s);Index;WE(1).Current (A);Current range
1308.6;0.841675;0;1;-2.68555e-06;10 mA
1309.2;0.834351;0.6;4;-2.47192e-06;10 mA
1309.8;0.829163;1.2;7;-2.96021e-06;10 mA
1310.4;0.82489;1.8;10;-2.80762e-06;10 mA
1311;0.820923;2.4;13;-2.53296e-06;10 mA
1311.6;0.817566;3;16;-2.59399e-06;10 mA
1312.2;0.814209;3.6;19;-2.7771e-06;10 mA
1312.8;0.811157;4.2;22;-2.92969e-06;10 mA
1313.4;0.808105;4.8;25;-2.56348e-06;10 mA
1314;0.805054;5.4;28;-2.62451e-06;10 mA
1314.6;0.802307;6;31;-2.56348e-06;10 mA
1315.2;0.799866;6.6;34;-2.92969e-06;10 mA
1315.8;0.797119;7.2;37;-2.86865e-06;10 mA
1316.4;0.794678;7.8;40;-2.99072e-06;10 mA
1317;0.792236;8.4;43;-2.74658e-06;10 mA
1317.6;0.789795;9;46;-2.62451e-06;10 mA
1318.2;0.787354;9.6;49;-2.83813e-06;10 mA
1318.8;0.785217;10.2;52;-2.74658e-06;10 mA
1319.4;0.782776;10.8;55;-2.83813e-06;10 mA
1320;0.780945;11.4;58;-2.65503e-06;10 mA
1320.6;0.778809;12;61;-2.92969e-06;10 mA
1321.2;0.776672;12.6;64;-2.68555e-06;10 mA
1321.8;0.774536;13.2;67;-2.80762e-06;10 mA
1322.4;0.7724;13.8;70;-2.7771e-06;10 mA
1323;0.770264;14.4;73;-2.7771e-06;10 mA
1323.6;0.768433;15;76;-2.92969e-06;10 mA
1324.2;0.766296;15.6;79;-2.19727e-06;10 mA
1324.8;0.764465;16.2;82;-2.74658e-06;10 mA
1325.4;0.762329;16.8;85;-2.41089e-06;10 mA
1326;0.760498;17.4;88;-2.62451e-06;10 mA
1326.6;0.758667;18;91;-2.71606e-06;10 mA
1327.2;0.756836;18.6;94;-2.83813e-06;10 mA
1327.8;0.755005;19.2;97;-2.41089e-06;10 mA
1328.4;0.752869;19.8;100;-2.68555e-06;10 mA
1329;0.751343;20.4;103;-2.59399e-06;10 mA
1329.6;0.749512;21;106;-2.83813e-06;10 mA
1330.2;0.747681;21.6;109;-2.59399e-06;10 mA
1330.8;0.74585;22.2;112;-2.99072e-06;10 mA
1331.4;0.744019;22.8;115;-2.68555e-06;10 mA
1332;0.7421875;23.4;118;-2.80762e-06;10 mA
1332.6;0.740356;24;121;-2.7771e-06;10 mA
1333.2;0.738831;24.6;124;-2.74658e-06;10 mA
1333.8;0.737;25.2;127;-2.80762e-06;10 mA
1334.4;0.735168;25.8;130;-2.92969e-06;10 mA
1335;0.733643;26.4;133;-2.96021e-06;10 mA
1335.6;0.732117;27;136;-2.92969e-06;10 mA
1336.2;0.730286;27.6;139;-2.59399e-06;10 mA
1336.8;0.72876;28.2;142;-2.96021e-06;10 mA
1337.4;0.726929;28.8;145;-2.74658e-06;10 mA
1338;0.725403;29.4;148;-3.17383e-06;10 mA
1338.6;0.723877;30;151;-2.99072e-06;10 mA
1339.2;0.722351;30.6;154;-2.86865e-06;10 mA
1339.8;0.720825;31.2;157;-2.62451e-06;10 mA
1340.4;0.719299;31.8;160;-2.7771e-06;10 mA
1341;0.717468;32.4;163;-2.74658e-06;10 mA
1341.6;0.715942;33;166;-2.7771e-06;10 mA
1342.2;0.714417;33.6;169;-2.86865e-06;10 mA
1342.8;0.712891;34.2;172;-2.71606e-06;10 mA
1343.4;0.711365;34.8;175;-2.7771e-06;10 mA
1344;0.709839;35.4;178;-3.08228e-06;10 mA
1344.6;0.708618;36;181;-2.68555e-06;10 mA
1345.2;0.707092;36.6;184;-2.80762e-06;10 mA
1345.8;0.705566;37.2;187;-2.96021e-06;10 mA
1346.4;0.704041;37.8;190;-3.05176e-06;10 mA
1347;0.702515;38.4;193;-2.7771e-06;10 mA
1347.6;0.701294;39;196;-2.92969e-06;10 mA
1348.2;0.699768;39.6;199;-3.11279e-06;10 mA
1348.8;0.698242;40.2;202;-2.59399e-06;10 mA
1349.4;0.697021;40.8;205;-2.62451e-06;10 mA
1350;0.695496;41.4;208;-2.74658e-06;10 mA
1350.6;0.694275;42;211;-2.7771e-06;10 mA
1351.2;0.692749;42.6;214;-2.62451e-06;10 mA
1351.8;0.691528;43.2;217;-2.83813e-06;10 mA
1352.4;0.690002;43.8;220;-2.74658e-06;10 mA
1353;0.688782;44.4;223;-3.17383e-06;10 mA
1353.6;0.687561;45;226;-2.96021e-06;10 mA
1354.2;0.686035;45.6;229;-2.96021e-06;10 mA
1354.8;0.684814;46.2;232;-2.65503e-06;10 mA
1355.4;0.683289;46.8;235;-3.17383e-06;10 mA
1356;0.682068;47.4;238;-2.96021e-06;10 mA
1356.6;0.680847;48;241;-2.92969e-06;10 mA
1357.2;0.679321;48.6;244;-2.92969e-06;10 mA
1357.8;0.678101;49.2;247;-2.96021e-06;10 mA
1358.4;0.67688;49.8;250;-2.74658e-06;10 mA
1359;0.675659;50.4;253;-2.96021e-06;10 mA
1359.6;0.674133;51;256;-2.80762e-06;10 mA
1360.2;0.672913;51.6;259;-3.05176e-06;10 mA
1360.8;0.671692;52.2;262;-3.02124e-06;10 mA
1361.4;0.670471;52.8;265;-2.80762e-06;10 mA
1362;0.66925;53.4;268;-2.68555e-06;10 mA
1362.6;0.66803;54;271;-2.56348e-06;10 mA
1363.2;0.666809;54.6;274;-2.86865e-06;10 mA
1363.8;0.665588;55.2;277;-2.86865e-06;10 mA
1364.4;0.664368;55.8;280;-2.99072e-06;10 mA
1365;0.662842;56.4;283;-3.05176e-06;10 mA
1365.6;0.661621;57;286;-3.17383e-06;10 mA
1366.2;0.6604;57.6;289;-2.89917e-06;10 mA
1366.8;0.65918;58.2;292;-2.80762e-06;10 mA
1367.4;0.657959;58.8;295;-2.56348e-06;10 mA
1368;0.656738;59.4;298;-3.14331e-06;10 mA
1368.6;0.655518;60;301;-3.2959e-06;10 mA
1369.2;0.654297;60.6;304;-2.86865e-06;10 mA
1369.8;0.653381;61.2;307;-2.7771e-06;10 mA
1370.4;0.652161;61.8;310;-2.74658e-06;10 mA
1371;0.65094;62.4;313;-3.02124e-06;10 mA
1371.6;0.649719;63;316;-2.74658e-06;10 mA
1372.2;0.648499;63.6;319;-2.99072e-06;10 mA
1372.8;0.647278;64.2;322;-3.26538e-06;10 mA
1373.4;0.646362;64.8;325;-2.96021e-06;10 mA
1374;0.645142;65.4;328;-3.08228e-06;10 mA
1374.6;0.643921;66;331;-3.35693e-06;10 mA
1375.2;0.6427;66.6;334;-2.92969e-06;10 mA
1375.8;0.641785;67.2;337;-3.54004e-06;10 mA
1376.4;0.640564;67.8;340;-3.08228e-06;10 mA
1377;0.639343;68.4;343;-2.62451e-06;10 mA
1377.6;0.638428;69;346;-3.38745e-06;10 mA
1378.2;0.637207;69.6;349;-2.96021e-06;10 mA
1378.8;0.636292;70.2;352;-2.68555e-06;10 mA
1379.4;0.635071;70.8;355;-3.08228e-06;10 mA
1380;0.634155;71.4;358;-3.05176e-06;10 mA
1380.6;0.632935;72;361;-3.02124e-06;10 mA
1381.2;0.632019;72.6;364;-2.92969e-06;10 mA
1381.8;0.630798;73.2;367;-3.08228e-06;10 mA
1382.4;0.629578;73.8;370;-3.05176e-06;10 mA
1383;0.628662;74.4;373;-2.65503e-06;10 mA
1383.6;0.627747;75;376;-2.68555e-06;10 mA
1384.2;0.626526;75.6;379;-2.86865e-06;10 mA
1384.8;0.62561;76.2;382;-3.35693e-06;10 mA
1385.4;0.62439;76.8;385;-2.92969e-06;10 mA
1386;0.623474;77.4;388;-3.26538e-06;10 mA
1386.6;0.622559;78;391;-3.05176e-06;10 mA
1387.2;0.621338;78.6;394;-3.02124e-06;10 mA
1387.8;0.620422;79.2;397;-3.23486e-06;10 mA
1388.4;0.619507;79.8;400;-3.02124e-06;10 mA
1389;0.618286;80.4;403;-2.99072e-06;10 mA
1389.6;0.617371;81;406;-2.92969e-06;10 mA
1390.2;0.616455;81.6;409;-2.86865e-06;10 mA
1390.8;0.615234;82.2;412;-2.96021e-06;10 mA
1391.4;0.614319;82.8;415;-3.11279e-06;10 mA
1392;0.613403;83.4;418;-2.86865e-06;10 mA
1392.6;0.612488;84;421;-3.2959e-06;10 mA
1393.2;0.611572;84.6;424;-3.17383e-06;10 mA
1393.8;0.610657;85.2;427;-3.11279e-06;10 mA
1394.4;0.609436;85.8;430;-2.86865e-06;10 mA
1395;0.608521;86.4;433;-3.17383e-06;10 mA
1395.6;0.607605;87;436;-3.05176e-06;10 mA
1396.2;0.606689;87.6;439;-3.05176e-06;10 mA
1396.8;0.605774;88.2;442;-2.99072e-06;10 mA
1397.4;0.604858;88.8;445;-2.89917e-06;10 mA
1398;0.603638;89.4;448;-2.92969e-06;10 mA
1398.6;0.602722;90;451;-3.26538e-06;10 mA
1399.2;0.601807;90.6;454;-3.11279e-06;10 mA
1399.8;0.600891;91.2;457;-3.05176e-06;10 mA
1400.4;0.599976;91.8;460;-2.89917e-06;10 mA
1401;0.59906;92.4;463;-2.80762e-06;10 mA
1401.6;0.598145;93;466;-2.99072e-06;10 mA
1402.2;0.597229;93.6;469;-3.02124e-06;10 mA
1402.8;0.596313;94.2;472;-3.11279e-06;10 mA
1403.4;0.595398;94.8;475;-2.92969e-06;10 mA
1404;0.594482;95.4;478;-3.60107e-06;10 mA
1404.6;0.593567;96;481;-3.2959e-06;10 mA
1405.2;0.592651;96.6;484;-3.20435e-06;10 mA
1405.8;0.591736;97.2;487;-2.74658e-06;10 mA
1406.4;0.59082;97.8;490;-2.96021e-06;10 mA
1407;0.589905;98.4;493;-2.96021e-06;10 mA
1407.6;0.588989;99;496;-2.92969e-06;10 mA
1408.2;0.588074;99.6;499;-3.11279e-06;10 mA
1408.8;0.587158;100.2;502;-3.23486e-06;10 mA
1409.4;0.586243;100.8;505;-3.20435e-06;10 mA
1410;0.585327;101.4;508;-3.20435e-06;10 mA
1410.6;0.584717;102;511;-3.2959e-06;10 mA
1411.2;0.583801;102.6;514;-3.20435e-06;10 mA
1411.8;0.582886;103.2;517;-2.99072e-06;10 mA
1412.4;0.58197;103.8;520;-3.05176e-06;10 mA
1413;0.581055;104.4;523;-3.20435e-06;10 mA
1413.6;0.580139;105;526;-3.41797e-06;10 mA
1414.2;0.579224;105.6;529;-3.02124e-06;10 mA
1414.8;0.578308;106.2;532;-2.86865e-06;10 mA
1415.4;0.577393;106.8;535;-3.26538e-06;10 mA
1416;0.576477;107.4;538;-3.23486e-06;10 mA
1416.6;0.575562;108;541;-3.05176e-06;10 mA
1417.2;0.574646;108.6;544;-2.89917e-06;10 mA
1417.8;0.57373;109.2;547;-2.80762e-06;10 mA
1418.4;0.572815;109.8;550;-2.80762e-06;10 mA
1419;0.571899;110.4;553;-3.2959e-06;10 mA
1419.6;0.570984;111;556;-2.92969e-06;10 mA
1420.2;0.570374;111.6;559;-3.69263e-06;10 mA
1420.8;0.569458;112.2;562;-2.89917e-06;10 mA
1421.4;0.568542;112.8;565;-2.7771e-06;10 mA
1422;0.567627;113.4;568;-3.17383e-06;10 mA
1422.6;0.566711;114;571;-2.89917e-06;10 mA
1423.2;0.565796;114.6;574;-2.92969e-06;10 mA
1423.8;0.56488;115.2;577;-3.08228e-06;10 mA
1424.4;0.56427;115.8;580;-2.99072e-06;10 mA
1425;0.563354;116.4;583;-3.20435e-06;10 mA
1425.6;0.562439;117;586;-2.62451e-06;10 mA
1426.2;0.561829;117.6;589;-2.92969e-06;10 mA
1426.8;0.560913;118.2;592;-2.80762e-06;10 mA
1427.4;0.559998;118.8;595;-2.96021e-06;10 mA
1428;0.559082;119.4;598;-3.38745e-06;10 mA
1428.6;0.558472;120;601;-2.99072e-06;10 mA
1429.2;0.557556;120.6;604;-3.14331e-06;10 mA
1429.8;0.556641;121.2;607;-3.23486e-06;10 mA
1430.4;0.55603;121.8;610;-3.20435e-06;10 mA
1431;0.555115;122.4;613;-2.92969e-06;10 mA
1431.6;0.554199;123;616;-3.44849e-06;10 mA
1432.2;0.553589;123.6;619;-2.99072e-06;10 mA
1432.8;0.552673;124.2;622;-2.74658e-06;10 mA
1433.4;0.552063;124.8;625;-2.96021e-06;10 mA
1434;0.551147;125.4;628;-3.08228e-06;10 mA
1434.6;0.550537;126;631;-3.17383e-06;10 mA
1435.2;0.549622;126.6;634;-3.11279e-06;10 mA
1435.8;0.549011;127.2;637;-3.11279e-06;10 mA
1436.4;0.548401;127.8;640;-3.2959e-06;10 mA
1437;0.547485;128.4;643;-3.17383e-06;10 mA
1437.6;0.546875;129;646;-3.08228e-06;10 mA
1438.2;0.545959;129.6;649;-2.89917e-06;10 mA
1438.8;0.545349;130.2;652;-3.57056e-06;10 mA
1439.4;0.544434;130.8;655;-2.7771e-06;10 mA
1440;0.543823;131.4;658;-2.99072e-06;10 mA
1440.6;0.543213;132;661;-2.92969e-06;10 mA
1441.2;0.542297;132.6;664;-3.26538e-06;10 mA
1441.8;0.541687;133.2;667;-3.26538e-06;10 mA
1442.4;0.540771;133.8;670;-3.02124e-06;10 mA
1443;0.540161;134.4;673;-3.02124e-06;10 mA
1443.6;0.539246;135;676;-2.99072e-06;10 mA
1444.2;0.538635;135.6;679;-3.02124e-06;10 mA
1444.8;0.538025;136.2;682;-3.17383e-06;10 mA
1445.4;0.537109;136.8;685;-3.26538e-06;10 mA
1446;0.536499;137.4;688;-2.83813e-06;10 mA
1446.6;0.535889;138;691;-3.05176e-06;10 mA
1447.2;0.534973;138.6;694;-3.08228e-06;10 mA
1447.8;0.534363;139.2;697;-3.14331e-06;10 mA
1448.4;0.533752;139.8;700;-2.89917e-06;10 mA
1449;0.532837;140.4;703;-2.99072e-06;10 mA
1449.6;0.532227;141;706;-2.80762e-06;10 mA
1450.2;0.531616;141.6;709;-3.17383e-06;10 mA
1450.8;0.530701;142.2;712;-3.11279e-06;10 mA
1451.4;0.53009;142.8;715;-3.05176e-06;10 mA
1452;0.52948;143.4;718;-2.53296e-06;10 mA
1452.6;0.52887;144;721;-3.02124e-06;10 mA
1453.2;0.527954;144.6;724;-3.11279e-06;10 mA
1453.8;0.527344;145.2;727;-3.26538e-06;10 mA
1454.4;0.526733;145.8;730;-3.17383e-06;10 mA
1455;0.526123;146.4;733;-3.26538e-06;10 mA
1455.6;0.525513;147;736;-2.86865e-06;10 mA
1456.2;0.524902;147.6;739;-3.20435e-06;10 mA
1456.8;0.524292;148.2;742;-3.17383e-06;10 mA
1457.4;0.523376;148.8;745;-3.08228e-06;10 mA
1458;0.522766;149.4;748;-3.17383e-06;10 mA
1458.6;0.522156;150;751;-3.23486e-06;10 mA
1459.2;0.521545;150.6;754;-2.80762e-06;10 mA
1459.8;0.520935;151.2;757;-3.02124e-06;10 mA
1460.4;0.520325;151.8;760;-2.96021e-06;10 mA
1461;0.519409;152.4;763;-3.11279e-06;10 mA
1461.6;0.518799;153;766;-3.32642e-06;10 mA
1462.2;0.518188;153.6;769;-2.83813e-06;10 mA
1462.8;0.517578;154.2;772;-3.2959e-06;10 mA
1463.4;0.516968;154.8;775;-3.26538e-06;10 mA
1464;0.516357;155.4;778;-2.99072e-06;10 mA
1464.6;0.515747;156;781;-3.17383e-06;10 mA
1465.2;0.515137;156.6;784;-2.86865e-06;10 mA
1465.8;0.514526;157.2;787;-3.14331e-06;10 mA
1466.4;0.513916;157.8;790;-3.54004e-06;10 mA
1467;0.513306;158.4;793;-3.02124e-06;10 mA
1467.6;0.512695;159;796;-2.96021e-06;10 mA
1468.2;0.512085;159.6;799;-3.05176e-06;10 mA
1468.8;0.511475;160.2;802;-3.2959e-06;10 mA
1469.4;0.510864;160.8;805;-3.08228e-06;10 mA
1470;0.510254;161.4;808;-3.02124e-06;10 mA
1470.6;0.509644;162;811;-3.17383e-06;10 mA
1471.2;0.509033;162.6;814;-3.17383e-06;10 mA
1471.8;0.508423;163.2;817;-3.50952e-06;10 mA
1472.4;0.508118;163.8;820;-3.2959e-06;10 mA
1473;0.507202;164.4;823;-2.99072e-06;10 mA
1473.6;0.506897;165;826;-2.74658e-06;10 mA
1474.2;0.506287;165.6;829;-3.26538e-06;10 mA
1474.8;0.505676;166.2;832;-3.05176e-06;10 mA
1475.4;0.505066;166.8;835;-3.2959e-06;10 mA
1476;0.504456;167.4;838;-3.32642e-06;10 mA
1476.6;0.503845;168;841;-3.14331e-06;10 mA
1477.2;0.503235;168.6;844;-3.14331e-06;10 mA
1477.8;0.502625;169.2;847;-3.20435e-06;10 mA
1478.4;0.502014;169.8;850;-3.17383e-06;10 mA
1479;0.501404;170.4;853;-3.32642e-06;10 mA
1479.6;0.500793;171;856;-3.41797e-06;10 mA
1480.2;0.500183;171.6;859;-3.23486e-06;10 mA
1480.8;0.499847;172.2;862;-3.05176e-06;10 mA
1481.4;0.499268;172.8;865;-2.83813e-06;10 mA
1482;0.498718;173.4;868;-2.74658e-06;10 mA
1482.6;0.498108;174;871;-3.17383e-06;10 mA
1483.2;0.497528;174.6;874;-3.57056e-06;10 mA
1483.8;0.496948;175.2;877;-3.08228e-06;10 mA
1484.4;0.496429;175.8;880;-3.08228e-06;10 mA
1485;0.495819;176.4;883;-2.99072e-06;10 mA
1485.6;0.49527;177;886;-3.23486e-06;10 mA
1486.2;0.49472;177.6;889;-2.92969e-06;10 mA
1486.8;0.494171;178.2;892;-3.17383e-06;10 mA
1487.4;0.493652;178.8;895;-3.32642e-06;10 mA
1488;0.493042;179.4;898;-2.96021e-06;10 mA
1488.6;0.492493;180;901;-3.02124e-06;10 mA
1489.2;0.491943;180.6;904;-3.23486e-06;10 mA
1489.8;0.491394;181.2;907;-3.02124e-06;10 mA
1490.4;0.490845;181.8;910;-2.99072e-06;10 mA
1491;0.490265;182.4;913;-2.99072e-06;10 mA
1491.6;0.489716;183;916;-3.41797e-06;10 mA
1492.2;0.489136;183.6;919;-3.17383e-06;10 mA
1492.8;0.488586;184.2;922;-3.26538e-06;10 mA
1493.4;0.487976;184.8;925;-3.2959e-06;10 mA
1494;0.487427;185.4;928;-3.08228e-06;10 mA
1494.6;0.486877;186;931;-2.92969e-06;10 mA
1495.2;0.486328;186.6;934;-3.32642e-06;10 mA
1495.8;0.485748;187.2;937;-3.35693e-06;10 mA
1496.4;0.485138;187.8;940;-3.2959e-06;10 mA
1497;0.484558;188.4;943;-2.99072e-06;10 mA
1497.6;0.483978;189;946;-3.23486e-06;10 mA
1498.2;0.483429;189.6;949;-3.20435e-06;10 mA
1498.8;0.48288;190.2;952;-3.32642e-06;10 mA
1499.4;0.48233;190.8;955;-2.65503e-06;10 mA
1500;0.48175;191.4;958;-3.02124e-06;10 mA
1500.6;0.481201;192;961;-3.17383e-06;10 mA
1501.2;0.480652;192.6;964;-3.26538e-06;10 mA
1501.8;0.480103;193.2;967;-3.17383e-06;10 mA
1502.4;0.479523;193.8;970;-3.05176e-06;10 mA
1503;0.479004;194.4;973;-3.17383e-06;10 mA
1503.6;0.478485;195;976;-3.35693e-06;10 mA
1504.2;0.477905;195.6;979;-2.96021e-06;10 mA
1504.8;0.477325;196.2;982;-2.80762e-06;10 mA
1505.4;0.476776;196.8;985;-3.02124e-06;10 mA
1506;0.476257;197.4;988;-2.86865e-06;10 mA
1506.6;0.475708;198;991;-3.2959e-06;10 mA
1507.2;0.475159;198.6;994;-3.20435e-06;10 mA
1507.8;0.474609;199.2;997;-3.05176e-06;10 mA
1508.4;0.474091;199.8;1000;-3.11279e-06;10 mA
1509;0.473572;200.4;1003;-3.02124e-06;10 mA
1509.6;0.473053;201;1006;-3.44849e-06;10 mA
1510.2;0.472534;201.6;1009;-3.14331e-06;10 mA
1510.8;0.471985;202.2;1012;-3.17383e-06;10 mA
1511.4;0.471466;202.8;1015;-3.26538e-06;10 mA
1512;0.470947;203.4;1018;-2.56348e-06;10 mA
1512.6;0.470428;204;1021;-3.50952e-06;10 mA
1513.2;0.46994;204.6;1024;-3.41797e-06;10 mA
1513.8;0.469421;205.2;1027;-3.41797e-06;10 mA
1514.4;0.468933;205.8;1030;-3.54004e-06;10 mA
1515;0.468414;206.4;1033;-3.11279e-06;10 mA
1515.6;0.467926;207;1036;-3.05176e-06;10 mA
1516.2;0.467407;207.6;1039;-3.17383e-06;10 mA
1516.8;0.466919;208.2;1042;-2.92969e-06;10 mA
1517.4;0.466461;208.8;1045;-3.38745e-06;10 mA
1518;0.465942;209.4;1048;-3.02124e-06;10 mA
1518.6;0.465485;210;1051;-3.11279e-06;10 mA
1519.2;0.464996;210.6;1054;-2.89917e-06;10 mA
1519.8;0.464508;211.2;1057;-3.05176e-06;10 mA
1520.4;0.46402;211.8;1060;-3.35693e-06;10 mA
1521;0.463531;212.4;1063;-3.05176e-06;10 mA
1521.6;0.463074;213;1066;-3.23486e-06;10 mA
1522.2;0.462616;213.6;1069;-2.96021e-06;10 mA
1522.8;0.462128;214.2;1072;-2.96021e-06;10 mA
1523.4;0.4617;214.8;1075;-3.20435e-06;10 mA
1524;0.461243;215.4;1078;-3.17383e-06;10 mA
1524.6;0.460785;216;1081;-2.99072e-06;10 mA
1525.2;0.460388;216.6;1084;-3.2959e-06;10 mA
1525.8;0.4599;217.2;1087;-2.99072e-06;10 mA
1526.4;0.459442;217.8;1090;-3.23486e-06;10 mA
1527;0.459015;218.4;1093;-2.89917e-06;10 mA
1527.6;0.458557;219;1096;-3.14331e-06;10 mA
1528.2;0.45813;219.6;1099;-3.41797e-06;10 mA
1528.8;0.457672;220.2;1102;-2.92969e-06;10 mA
1529.4;0.457214;220.8;1105;-3.479e-06;10 mA
1530;0.456726;221.4;1108;-3.54004e-06;10 mA
1530.6;0.456329;222;1111;-3.17383e-06;10 mA
1531.2;0.455841;222.6;1114;-3.20435e-06;10 mA
1531.8;0.455383;223.2;1117;-3.54004e-06;10 mA
1532.4;0.454926;223.8;1120;-3.66211e-06;10 mA
1533;0.454498;224.4;1123;-3.17383e-06;10 mA
1533.6;0.454071;225;1126;-2.80762e-06;10 mA
1534.2;0.453644;225.6;1129;-3.08228e-06;10 mA
1534.8;0.453156;226.2;1132;-2.86865e-06;10 mA
1535.4;0.452728;226.8;1135;-2.83813e-06;10 mA
1536;0.452362;227.4;1138;-3.05176e-06;10 mA
1536.6;0.451904;228;1141;-2.86865e-06;10 mA
1537.2;0.451477;228.6;1144;-2.99072e-06;10 mA
1537.8;0.45108;229.2;1147;-2.99072e-06;10 mA
1538.4;0.450623;229.8;1150;-3.35693e-06;10 mA
1539;0.450226;230.4;1153;-3.41797e-06;10 mA
1539.6;0.449829;231;1156;-3.35693e-06;10 mA
1540.2;0.449371;231.6;1159;-3.08228e-06;10 mA
1540.8;0.448975;232.2;1162;-3.35693e-06;10 mA
1541.4;0.448517;232.8;1165;-3.17383e-06;10 mA
1542;0.44809;233.4;1168;-3.2959e-06;10 mA
1542.6;0.447601;234;1171;-3.35693e-06;10 mA
1543.2;0.447205;234.6;1174;-3.11279e-06;10 mA
1543.8;0.446747;235.2;1177;-3.11279e-06;10 mA
1544.4;0.44635;235.8;1180;-3.02124e-06;10 mA
1545;0.445923;236.4;1183;-3.479e-06;10 mA
1545.6;0.445496;237;1186;-2.96021e-06;10 mA
1546.2;0.445099;237.6;1189;-3.66211e-06;10 mA
1546.8;0.444733;238.2;1192;-3.05176e-06;10 mA
1547.4;0.444336;238.8;1195;-3.17383e-06;10 mA
1548;0.443878;239.4;1198;-3.05176e-06;10 mA
1548.6;0.443512;240;1201;-3.08228e-06;10 mA
1549.2;0.443115;240.6;1204;-2.83813e-06;10 mA
1549.8;0.442688;241.2;1207;-3.14331e-06;10 mA
1550.4;0.442261;241.8;1210;-3.2959e-06;10 mA
1551;0.441864;242.4;1213;-3.05176e-06;10 mA
1551.6;0.441406;243;1216;-2.96021e-06;10 mA
1552.2;0.44101;243.6;1219;-3.26538e-06;10 mA
1552.8;0.440613;244.2;1222;-3.05176e-06;10 mA
1553.4;0.440216;244.8;1225;-3.35693e-06;10 mA
1554;0.439758;245.4;1228;-3.75366e-06;10 mA
1554.6;0.439331;246;1231;-3.26538e-06;10 mA
1555.2;0.438965;246.6;1234;-3.50952e-06;10 mA
1555.8;0.438568;247.2;1237;-2.92969e-06;10 mA
1556.4;0.438141;247.8;1240;-3.14331e-06;10 mA
1557;0.437714;248.4;1243;-2.89917e-06;10 mA
1557.6;0.437286;249;1246;-2.86865e-06;10 mA
1558.2;0.436859;249.6;1249;-3.11279e-06;10 mA
1558.8;0.436462;250.2;1252;-3.2959e-06;10 mA
1559.4;0.436066;250.8;1255;-3.20435e-06;10 mA
1560;0.435638;251.4;1258;-3.69263e-06;10 mA
1560.6;0.435211;252;1261;-3.17383e-06;10 mA
1561.2;0.434814;252.6;1264;-2.99072e-06;10 mA
1561.8;0.434418;253.2;1267;-3.26538e-06;10 mA
1562.4;0.434052;253.8;1270;-3.41797e-06;10 mA
1563;0.433685;254.4;1273;-3.20435e-06;10 mA
1563.6;0.433258;255;1276;-3.14331e-06;10 mA
1564.2;0.432892;255.6;1279;-3.32642e-06;10 mA
1564.8;0.432495;256.2;1282;-3.05176e-06;10 mA
1565.4;0.432098;256.8;1285;-3.2959e-06;10 mA
1566;0.431671;257.4;1288;-3.26538e-06;10 mA
1566.6;0.431274;258;1291;-2.99072e-06;10 mA
1567.2;0.430878;258.6;1294;-3.08228e-06;10 mA
1567.8;0.430481;259.2;1297;-3.14331e-06;10 mA
1568.4;0.430145;259.8;1300;-2.99072e-06;10 mA
1569;0.429779;260.4;1303;-2.96021e-06;10 mA
1569.6;0.429382;261;1306;-3.08228e-06;10 mA
1570.2;0.429016;261.6;1309;-2.99072e-06;10 mA
1570.8;0.42865;262.2;1312;-2.92969e-06;10 mA
1571.4;0.428314;262.8;1315;-3.08228e-06;10 mA
1572;0.427887;263.4;1318;-3.32642e-06;10 mA
1572.6;0.42749;264;1321;-3.11279e-06;10 mA
1573.2;0.427063;264.6;1324;-3.2959e-06;10 mA
1573.8;0.426697;265.2;1327;-2.96021e-06;10 mA
1574.4;0.426392;265.8;1330;-3.479e-06;10 mA
1575;0.425964;266.4;1333;-3.08228e-06;10 mA
1575.6;0.425659;267;1336;-3.41797e-06;10 mA
1576.2;0.425323;267.6;1339;-3.57056e-06;10 mA
1576.8;0.424988;268.2;1342;-2.96021e-06;10 mA
1577.4;0.424652;268.8;1345;-2.99072e-06;10 mA
1578;0.424255;269.4;1348;-2.68555e-06;10 mA
1578.6;0.42392;270;1351;-3.32642e-06;10 mA
1579.2;0.423553;270.6;1354;-3.23486e-06;10 mA
1579.8;0.423157;271.2;1357;-3.32642e-06;10 mA
1580.4;0.42276;271.8;1360;-2.71606e-06;10 mA
1581;0.422424;272.4;1363;-3.08228e-06;10 mA
1581.6;0.422028;273;1366;-3.2959e-06;10 mA
1582.2;0.421692;273.6;1369;-3.17383e-06;10 mA
1582.8;0.421326;274.2;1372;-3.11279e-06;10 mA
1583.4;0.420959;274.8;1375;-3.2959e-06;10 mA
1584;0.420593;275.4;1378;-3.23486e-06;10 mA
1584.6;0.420258;276;1381;-2.99072e-06;10 mA
1585.2;0.419891;276.6;1384;-3.23486e-06;10 mA
1585.8;0.419586;277.2;1387;-3.2959e-06;10 mA
1586.4;0.41925;277.8;1390;-3.2959e-06;10 mA
1587;0.418884;278.4;1393;-3.26538e-06;10 mA
1587.6;0.418518;279;1396;-3.41797e-06;10 mA
1588.2;0.418152;279.6;1399;-3.23486e-06;10 mA
1588.8;0.417786;280.2;1402;-3.20435e-06;10 mA
1589.4;0.41745;280.8;1405;-3.11279e-06;10 mA
1590;0.417114;281.4;1408;-3.14331e-06;10 mA
1590.6;0.416779;282;1411;-2.96021e-06;10 mA
1591.2;0.416443;282.6;1414;-3.08228e-06;10 mA
1591.8;0.416046;283.2;1417;-3.20435e-06;10 mA
1592.4;0.415649;283.8;1420;-3.23486e-06;10 mA
1593;0.415314;284.4;1423;-2.92969e-06;10 mA
1593.6;0.414978;285;1426;-3.11279e-06;10 mA
1594.2;0.414673;285.6;1429;-3.32642e-06;10 mA
1594.8;0.414337;286.2;1432;-3.08228e-06;10 mA
1595.4;0.414001;286.8;1435;-3.05176e-06;10 mA
1596;0.413666;287.4;1438;-3.57056e-06;10 mA
1596.6;0.4133;288;1441;-3.26538e-06;10 mA
1597.2;0.412964;288.6;1444;-3.41797e-06;10 mA
1597.8;0.412659;289.2;1447;-3.11279e-06;10 mA
1598.4;0.412292;289.8;1450;-3.35693e-06;10 mA
1599;0.411957;290.4;1453;-3.23486e-06;10 mA
1599.6;0.411621;291;1456;-3.26538e-06;10 mA
1600.2;0.411285;291.6;1459;-3.02124e-06;10 mA
1600.8;0.41098;292.2;1462;-3.35693e-06;10 mA
1601.4;0.410614;292.8;1465;-3.26538e-06;10 mA
1602;0.410278;293.4;1468;-3.20435e-06;10 mA
1602.6;0.409973;294;1471;-3.32642e-06;10 mA
1603.2;0.409637;294.6;1474;-2.96021e-06;10 mA
1603.8;0.409332;295.2;1477;-2.96021e-06;10 mA
1604.4;0.408997;295.8;1480;-3.2959e-06;10 mA
1605;0.408661;296.4;1483;-3.50952e-06;10 mA
1605.6;0.408325;297;1486;-3.2959e-06;10 mA
1606.2;0.40802;297.6;1489;-3.17383e-06;10 mA
1606.8;0.407684;298.2;1492;-3.26538e-06;10 mA
1607.4;0.407318;298.8;1495;-3.02124e-06;10 mA
1608;0.407013;299.4;1498;-2.92969e-06;10 mA
1608.6;0.406708;300;1501;-3.17383e-06;10 mA
1609.2;0.406403;300.6;1504;-2.92969e-06;10 mA
1609.8;0.406097;301.2;1507;-3.41797e-06;10 mA
1610.4;0.405792;301.8;1510;-3.08228e-06;10 mA
1611;0.405487;302.4;1513;-3.44849e-06;10 mA
1611.6;0.405182;303;1516;-3.23486e-06;10 mA
1612.2;0.404877;303.6;1519;-3.08228e-06;10 mA
1612.8;0.404572;304.2;1522;-3.38745e-06;10 mA
1613.4;0.404236;304.8;1525;-2.89917e-06;10 mA
1614;0.403931;305.4;1528;-3.05176e-06;10 mA
1614.6;0.403625;306;1531;-3.08228e-06;10 mA
1615.2;0.40332;306.6;1534;-3.08228e-06;10 mA
1615.8;0.402985;307.2;1537;-3.35693e-06;10 mA
1616.4;0.402649;307.8;1540;-3.11279e-06;10 mA
1617;0.402313;308.4;1543;-2.99072e-06;10 mA
1617.6;0.401978;309;1546;-3.26538e-06;10 mA
1618.2;0.401642;309.6;1549;-3.26538e-06;10 mA
1618.8;0.401337;310.2;1552;-3.17383e-06;10 mA
1619.4;0.401031;310.8;1555;-2.80762e-06;10 mA
1620;0.400726;311.4;1558;-3.32642e-06;10 mA
1620.6;0.400391;312;1561;-3.69263e-06;10 mA
1621.2;0.400055;312.6;1564;-3.2959e-06;10 mA
1621.8;0.399719;313.2;1567;-3.17383e-06;10 mA
1622.4;0.399384;313.8;1570;-3.2959e-06;10 mA
1623;0.399048;314.4;1573;-3.08228e-06;10 mA
1623.6;0.398712;315;1576;-3.11279e-06;10 mA
1624.2;0.398407;315.6;1579;-2.80762e-06;10 mA
1624.8;0.398102;316.2;1582;-3.479e-06;10 mA
1625.4;0.397766;316.8;1585;-3.11279e-06;10 mA
1626;0.397461;317.4;1588;-3.17383e-06;10 mA
1626.6;0.397156;318;1591;-3.2959e-06;10 mA
1627.2;0.396851;318.6;1594;-3.2959e-06;10 mA
1627.8;0.396545;319.2;1597;-3.11279e-06;10 mA
1628.4;0.39624;319.8;1600;-3.20435e-06;10 mA
1629;0.395935;320.4;1603;-2.96021e-06;10 mA
1629.6;0.39563;321;1606;-3.32642e-06;10 mA
1630.2;0.395325;321.6;1609;-2.99072e-06;10 mA
1630.8;0.39502;322.2;1612;-3.32642e-06;10 mA
1631.4;0.394745;322.8;1615;-3.02124e-06;10 mA
1632;0.39447;323.4;1618;-3.26538e-06;10 mA
1632.6;0.394196;324;1621;-3.54004e-06;10 mA
1633.2;0.39389;324.6;1624;-3.08228e-06;10 mA
1633.8;0.393585;325.2;1627;-3.479e-06;10 mA
1634.4;0.393311;325.8;1630;-3.17383e-06;10 mA
1635;0.392975;326.4;1633;-3.63159e-06;10 mA
1635.6;0.3927;327;1636;-3.05176e-06;10 mA
1636.2;0.392395;327.6;1639;-3.17383e-06;10 mA
1636.8;0.39209;328.2;1642;-3.11279e-06;10 mA
1637.4;0.391815;328.8;1645;-3.14331e-06;10 mA
1638;0.391541;329.4;1648;-2.96021e-06;10 mA
1638.6;0.391296;330;1651;-2.99072e-06;10 mA
1639.2;0.391022;330.6;1654;-3.26538e-06;10 mA
1639.8;0.390717;331.2;1657;-2.74658e-06;10 mA
1640.4;0.390472;331.8;1660;-3.17383e-06;10 mA
1641;0.390198;332.4;1663;-3.41797e-06;10 mA
1641.6;0.389893;333;1666;-3.02124e-06;10 mA
1642.2;0.389618;333.6;1669;-3.08228e-06;10 mA
1642.8;0.389313;334.2;1672;-3.23486e-06;10 mA
1643.4;0.389008;334.8;1675;-3.08228e-06;10 mA
1644;0.388733;335.4;1678;-3.32642e-06;10 mA
1644.6;0.388458;336;1681;-3.02124e-06;10 mA
1645.2;0.388184;336.6;1684;-2.99072e-06;10 mA
1645.8;0.387909;337.2;1687;-3.35693e-06;10 mA
1646.4;0.387604;337.8;1690;-3.32642e-06;10 mA
1647;0.387299;338.4;1693;-2.99072e-06;10 mA
1647.6;0.387054;339;1696;-3.02124e-06;10 mA
1648.2;0.386749;339.6;1699;-3.20435e-06;10 mA
1648.8;0.386475;340.2;1702;-3.17383e-06;10 mA
1649.4;0.3862;340.8;1705;-2.80762e-06;10 mA
1650;0.385864;341.4;1708;-3.23486e-06;10 mA
1650.6;0.38559;342;1711;-3.35693e-06;10 mA
1651.2;0.385315;342.6;1714;-2.92969e-06;10 mA
1651.8;0.38501;343.2;1717;-3.41797e-06;10 mA
1652.4;0.384705;343.8;1720;-2.99072e-06;10 mA
1653;0.38446;344.4;1723;-3.17383e-06;10 mA
1653.6;0.384155;345;1726;-3.44849e-06;10 mA
1654.2;0.383911;345.6;1729;-3.08228e-06;10 mA
1654.8;0.383636;346.2;1732;-3.20435e-06;10 mA
1655.4;0.383331;346.8;1735;-3.2959e-06;10 mA
1656;0.383057;347.4;1738;-3.08228e-06;10 mA
1656.6;0.382782;348;1741;-3.41797e-06;10 mA
1657.2;0.382477;348.6;1744;-3.26538e-06;10 mA
1657.8;0.382202;349.2;1747;-2.96021e-06;10 mA
1658.4;0.381958;349.8;1750;-3.05176e-06;10 mA
1659;0.381714;350.4;1753;-3.26538e-06;10 mA
1659.6;0.38147;351;1756;-3.05176e-06;10 mA
1660.2;0.381195;351.6;1759;-3.08228e-06;10 mA
1660.8;0.380951;352.2;1762;-3.23486e-06;10 mA
1661.4;0.380615;352.8;1765;-2.96021e-06;10 mA
1662;0.380341;353.4;1768;-3.23486e-06;10 mA
1662.6;0.380066;354;1771;-2.86865e-06;10 mA
1663.2;0.379822;354.6;1774;-3.08228e-06;10 mA
1663.8;0.379547;355.2;1777;-3.17383e-06;10 mA
1664.4;0.379272;355.8;1780;-2.99072e-06;10 mA
1665;0.378967;356.4;1783;-3.17383e-06;10 mA
1665.6;0.378723;357;1786;-3.23486e-06;10 mA
1666.2;0.378448;357.6;1789;-3.11279e-06;10 mA
1666.8;0.378174;358.2;1792;-3.479e-06;10 mA
1667.4;0.377899;358.8;1795;-3.41797e-06;10 mA
1668;0.377655;359.4;1798;-3.02124e-06;10 mA
1668.6;0.37738;360;1801;-3.17383e-06;10 mA
1669.2;0.377106;360.6;1804;-3.05176e-06;10 mA
1669.8;0.376831;361.2;1807;-3.479e-06;10 mA
1670.4;0.376556;361.8;1810;-3.479e-06;10 mA
1671;0.376312;362.4;1813;-3.17383e-06;10 mA
1671.6;0.376038;363;1816;-3.08228e-06;10 mA
1672.2;0.375732;363.6;1819;-3.17383e-06;10 mA
1672.8;0.375458;364.2;1822;-3.35693e-06;10 mA
1673.4;0.375183;364.8;1825;-3.20435e-06;10 mA
1674;0.374939;365.4;1828;-3.08228e-06;10 mA
1674.6;0.374664;366;1831;-3.479e-06;10 mA
1675.2;0.374359;366.6;1834;-3.41797e-06;10 mA
1675.8;0.374084;367.2;1837;-3.41797e-06;10 mA
1676.4;0.373779;367.8;1840;-3.32642e-06;10 mA
1677;0.373474;368.4;1843;-3.17383e-06;10 mA
1677.6;0.37323;369;1846;-3.38745e-06;10 mA
1678.2;0.372986;369.6;1849;-3.26538e-06;10 mA
1678.8;0.372711;370.2;1852;-3.50952e-06;10 mA
1679.4;0.372437;370.8;1855;-2.89917e-06;10 mA
1680;0.372192;371.4;1858;-3.35693e-06;10 mA
1680.6;0.371948;372;1861;-3.32642e-06;10 mA
1681.2;0.371674;372.6;1864;-3.14331e-06;10 mA
1681.8;0.371368;373.2;1867;-3.02124e-06;10 mA
1682.4;0.371094;373.8;1870;-3.54004e-06;10 mA
1683;0.37085;374.4;1873;-3.17383e-06;10 mA
1683.6;0.370575;375;1876;-3.32642e-06;10 mA
1684.2;0.3703;375.6;1879;-3.2959e-06;10 mA
1684.8;0.370026;376.2;1882;-3.44849e-06;10 mA
1685.4;0.369751;376.8;1885;-3.20435e-06;10 mA
1686;0.369476;377.4;1888;-3.08228e-06;10 mA
1686.6;0.369202;378;1891;-2.7771e-06;10 mA
1687.2;0.368958;378.6;1894;-3.38745e-06;10 mA
1687.8;0.368713;379.2;1897;-2.86865e-06;10 mA
1688.4;0.368439;379.8;1900;-3.32642e-06;10 mA
1689;0.368164;380.4;1903;-3.11279e-06;10 mA
1689.6;0.36792;381;1906;-2.74658e-06;10 mA
1690.2;0.367645;381.6;1909;-3.20435e-06;10 mA
1690.8;0.367401;382.2;1912;-3.23486e-06;10 mA
1691.4;0.367126;382.8;1915;-3.26538e-06;10 mA
1692;0.366913;383.4;1918;-3.41797e-06;10 mA
1692.6;0.366669;384;1921;-3.26538e-06;10 mA
1693.2;0.366425;384.6;1924;-3.20435e-06;10 mA
1693.8;0.36618;385.2;1927;-3.57056e-06;10 mA
1694.4;0.365936;385.8;1930;-3.20435e-06;10 mA
1695;0.365662;386.4;1933;-3.479e-06;10 mA
1695.6;0.365417;387;1936;-3.57056e-06;10 mA
1696.2;0.365173;387.6;1939;-3.17383e-06;10 mA
1696.8;0.364899;388.2;1942;-3.26538e-06;10 mA
1697.4;0.364594;388.8;1945;-2.92969e-06;10 mA
1698;0.364319;389.4;1948;-3.50952e-06;10 mA
1698.6;0.364044;390;1951;-3.08228e-06;10 mA
1699.2;0.36377;390.6;1954;-3.41797e-06;10 mA
1699.8;0.363525;391.2;1957;-3.26538e-06;10 mA
1700.4;0.363251;391.8;1960;-3.35693e-06;10 mA
1701;0.362976;392.4;1963;-3.20435e-06;10 mA
1701.6;0.362732;393;1966;-3.23486e-06;10 mA
1702.2;0.362457;393.6;1969;-3.11279e-06;10 mA
1702.8;0.362244;394.2;1972;-2.96021e-06;10 mA
1703.4;0.361969;394.8;1975;-3.14331e-06;10 mA
1704;0.361725;395.4;1978;-2.86865e-06;10 mA
1704.6;0.36145;396;1981;-2.99072e-06;10 mA
1705.2;0.361176;396.6;1984;-2.96021e-06;10 mA
1705.8;0.360962;397.2;1987;-3.44849e-06;10 mA
1706.4;0.360718;397.8;1990;-3.479e-06;10 mA
1707;0.360504;398.4;1993;-3.35693e-06;10 mA
1707.6;0.360199;399;1996;-3.35693e-06;10 mA
1708.2;0.359985;399.6;1999;-3.26538e-06;10 mA
1708.8;0.359711;400.2;2002;-3.2959e-06;10 mA
1709.4;0.359436;400.8;2005;-3.11279e-06;10 mA
1710;0.359222;401.4;2008;-3.26538e-06;10 mA
1710.6;0.358948;402;2011;-3.60107e-06;10 mA
1711.2;0.358704;402.6;2014;-3.11279e-06;10 mA
1711.8;0.358459;403.2;2017;-3.54004e-06;10 mA
1712.4;0.358215;403.8;2020;-3.2959e-06;10 mA
1713;0.358002;404.4;2023;-3.23486e-06;10 mA
1713.6;0.357788;405;2026;-2.92969e-06;10 mA
1714.2;0.357544;405.6;2029;-2.92969e-06;10 mA
1714.8;0.3573;406.2;2032;-3.50952e-06;10 mA
1715.4;0.357056;406.8;2035;-3.17383e-06;10 mA
1716;0.356842;407.4;2038;-3.41797e-06;10 mA
1716.6;0.356598;408;2041;-3.2959e-06;10 mA
1717.2;0.356354;408.6;2044;-3.41797e-06;10 mA
1717.8;0.35614;409.2;2047;-3.54004e-06;10 mA
1718.4;0.355896;409.8;2050;-3.11279e-06;10 mA
1719;0.355652;410.4;2053;-3.08228e-06;10 mA
1719.6;0.355377;411;2056;-3.2959e-06;10 mA
1720.2;0.355133;411.6;2059;-3.17383e-06;10 mA
1720.8;0.354889;412.2;2062;-3.17383e-06;10 mA
1721.4;0.354675;412.8;2065;-3.479e-06;10 mA
1722;0.354431;413.4;2068;-3.08228e-06;10 mA
1722.6;0.354187;414;2071;-3.17383e-06;10 mA
1723.2;0.353973;414.6;2074;-3.05176e-06;10 mA
1723.8;0.353729;415.2;2077;-2.92969e-06;10 mA
1724.4;0.353485;415.8;2080;-3.2959e-06;10 mA
1725;0.353241;416.4;2083;-3.08228e-06;10 mA
1725.6;0.352997;417;2086;-3.17383e-06;10 mA
1726.2;0.352783;417.6;2089;-3.05176e-06;10 mA
1726.8;0.352539;418.2;2092;-3.2959e-06;10 mA
1727.4;0.352295;418.8;2095;-3.17383e-06;10 mA
1728;0.352051;419.4;2098;-3.17383e-06;10 mA
1728.6;0.351807;420;2101;-3.11279e-06;10 mA
1729.2;0.351593;420.6;2104;-3.20435e-06;10 mA
1729.8;0.351349;421.2;2107;-3.17383e-06;10 mA
1730.4;0.351135;421.8;2110;-3.17383e-06;10 mA
1731;0.35083;422.4;2113;-3.63159e-06;10 mA
1731.6;0.350616;423;2116;-3.2959e-06;10 mA
1732.2;0.350342;423.6;2119;-3.41797e-06;10 mA
1732.8;0.350098;424.2;2122;-3.26538e-06;10 mA
1733.4;0.349823;424.8;2125;-3.35693e-06;10 mA
1734;0.349579;425.4;2128;-3.57056e-06;10 mA
1734.6;0.349335;426;2131;-3.05176e-06;10 mA
1735.2;0.349091;426.6;2134;-3.41797e-06;10 mA
1735.8;0.348816;427.2;2137;-3.05176e-06;10 mA
1736.4;0.348572;427.8;2140;-3.05176e-06;10 mA
1737;0.348328;428.4;2143;-3.17383e-06;10 mA
1737.6;0.348083;429;2146;-3.50952e-06;10 mA
1738.2;0.347839;429.6;2149;-3.32642e-06;10 mA
1738.8;0.347595;430.2;2152;-3.05176e-06;10 mA
1739.4;0.347351;430.8;2155;-3.38745e-06;10 mA
1740;0.347107;431.4;2158;-3.32642e-06;10 mA
1740.6;0.346863;432;2161;-3.02124e-06;10 mA
1741.2;0.346649;432.6;2164;-3.38745e-06;10 mA
1741.8;0.346375;433.2;2167;-3.2959e-06;10 mA
1742.4;0.34613;433.8;2170;-3.35693e-06;10 mA
1743;0.345886;434.4;2173;-3.02124e-06;10 mA
1743.6;0.345703;435;2176;-3.35693e-06;10 mA
1744.2;0.345459;435.6;2179;-3.08228e-06;10 mA
1744.8;0.345215;436.2;2182;-3.26538e-06;10 mA
1745.4;0.344971;436.8;2185;-3.17383e-06;10 mA
1746;0.344757;437.4;2188;-3.05176e-06;10 mA
1746.6;0.344543;438;2191;-2.96021e-06;10 mA
1747.2;0.344299;438.6;2194;-3.35693e-06;10 mA
1747.8;0.344055;439.2;2197;-3.479e-06;10 mA
1748.4;0.343842;439.8;2200;-3.23486e-06;10 mA
1749;0.343597;440.4;2203;-3.17383e-06;10 mA
1749.6;0.343353;441;2206;-3.08228e-06;10 mA
1750.2;0.34317;441.6;2209;-3.2959e-06;10 mA
1750.8;0.342926;442.2;2212;-3.08228e-06;10 mA
1751.4;0.342682;442.8;2215;-3.20435e-06;10 mA
1752;0.342468;443.4;2218;-2.80762e-06;10 mA
1752.6;0.342224;444;2221;-3.2959e-06;10 mA
1753.2;0.341949;444.6;2224;-3.38745e-06;10 mA
1753.8;0.341736;445.2;2227;-2.86865e-06;10 mA
1754.4;0.341492;445.8;2230;-3.23486e-06;10 mA
1755;0.341217;446.4;2233;-3.35693e-06;10 mA
1755.6;0.340973;447;2236;-2.99072e-06;10 mA
1756.2;0.340729;447.6;2239;-3.69263e-06;10 mA
1756.8;0.340485;448.2;2242;-3.05176e-06;10 mA
1757.4;0.34024;448.8;2245;-3.20435e-06;10 mA
1758;0.339966;449.4;2248;-3.2959e-06;10 mA
1758.6;0.339691;450;2251;-3.20435e-06;10 mA
1759.2;0.339447;450.6;2254;-3.41797e-06;10 mA
1759.8;0.339233;451.2;2257;-2.99072e-06;10 mA
1760.4;0.33902;451.8;2260;-2.92969e-06;10 mA
1761;0.338745;452.4;2263;-3.66211e-06;10 mA
1761.6;0.338501;453;2266;-3.20435e-06;10 mA
1762.2;0.338257;453.6;2269;-3.02124e-06;10 mA
1762.8;0.337982;454.2;2272;-3.38745e-06;10 mA
1763.4;0.337769;454.8;2275;-3.17383e-06;10 mA
1764;0.337494;455.4;2278;-3.14331e-06;10 mA
1764.6;0.33728;456;2281;-3.479e-06;10 mA
1765.2;0.337036;456.6;2284;-2.99072e-06;10 mA
1765.8;0.336792;457.2;2287;-3.20435e-06;10 mA
1766.4;0.336578;457.8;2290;-3.05176e-06;10 mA
1767;0.336334;458.4;2293;-3.41797e-06;10 mA
1767.6;0.33609;459;2296;-3.14331e-06;10 mA
1768.2;0.335876;459.6;2299;-3.20435e-06;10 mA
1768.8;0.335632;460.2;2302;-3.2959e-06;10 mA
1769.4;0.335419;460.8;2305;-3.23486e-06;10 mA
1770;0.335175;461.4;2308;-3.17383e-06;10 mA
1770.6;0.33493;462;2311;-3.35693e-06;10 mA
1771.2;0.334717;462.6;2314;-3.44849e-06;10 mA
1771.8;0.334473;463.2;2317;-3.11279e-06;10 mA
1772.4;0.334259;463.8;2320;-3.2959e-06;10 mA
1773;0.334015;464.4;2323;-3.23486e-06;10 mA
1773.6;0.333801;465;2326;-3.26538e-06;10 mA
1774.2;0.333557;465.6;2329;-3.05176e-06;10 mA
1774.8;0.333313;466.2;2332;-3.05176e-06;10 mA
1775.4;0.333069;466.8;2335;-3.38745e-06;10 mA
1776;0.332855;467.4;2338;-3.17383e-06;10 mA
1776.6;0.332611;468;2341;-3.23486e-06;10 mA
1777.2;0.332397;468.6;2344;-3.72314e-06;10 mA
1777.8;0.332184;469.2;2347;-3.20435e-06;10 mA
1778.4;0.331909;469.8;2350;-3.41797e-06;10 mA
1779;0.331696;470.4;2353;-3.2959e-06;10 mA
1779.6;0.331482;471;2356;-3.41797e-06;10 mA
1780.2;0.331268;471.6;2359;-3.05176e-06;10 mA
1780.8;0.331024;472.2;2362;-3.35693e-06;10 mA
1781.4;0.330811;472.8;2365;-3.17383e-06;10 mA
1782;0.330597;473.4;2368;-2.86865e-06;10 mA
1782.6;0.330383;474;2371;-3.17383e-06;10 mA
1783.2;0.33017;474.6;2374;-3.11279e-06;10 mA
1783.8;0.329926;475.2;2377;-3.35693e-06;10 mA
1784.4;0.329742;475.8;2380;-2.99072e-06;10 mA
1785;0.329559;476.4;2383;-3.41797e-06;10 mA
1785.6;0.329346;477;2386;-3.20435e-06;10 mA
1786.2;0.329132;477.6;2389;-3.23486e-06;10 mA
1786.8;0.328918;478.2;2392;-3.32642e-06;10 mA
1787.4;0.328674;478.8;2395;-3.57056e-06;10 mA
1788;0.328461;479.4;2398;-3.17383e-06;10 mA
1788.6;0.328247;480;2401;-3.08228e-06;10 mA
1789.2;0.328003;480.6;2404;-3.44849e-06;10 mA
1789.8;0.327759;481.2;2407;-3.17383e-06;10 mA
1790.4;0.327515;481.8;2410;-2.92969e-06;10 mA
1791;0.327301;482.4;2413;-3.11279e-06;10 mA
1791.6;0.327026;483;2416;-3.479e-06;10 mA
1792.2;0.326782;483.6;2419;-3.35693e-06;10 mA
1792.8;0.326569;484.2;2422;-3.35693e-06;10 mA
1793.4;0.326324;484.8;2425;-3.57056e-06;10 mA
1794;0.32608;485.4;2428;-3.02124e-06;10 mA
1794.6;0.325867;486;2431;-3.26538e-06;10 mA
1795.2;0.325653;486.6;2434;-3.17383e-06;10 mA
1795.8;0.325439;487.2;2437;-3.41797e-06;10 mA
1796.4;0.325256;487.8;2440;-3.14331e-06;10 mA
1797;0.325012;488.4;2443;-3.2959e-06;10 mA
1797.6;0.324768;489;2446;-2.99072e-06;10 mA
1798.2;0.324554;489.6;2449;-3.2959e-06;10 mA
1798.8;0.32431;490.2;2452;-3.2959e-06;10 mA
1799.4;0.324066;490.8;2455;-3.35693e-06;10 mA
1800;0.323853;491.4;2458;-3.41797e-06;10 mA
1800.6;0.323608;492;2461;-3.41797e-06;10 mA
1801.2;0.323364;492.6;2464;-3.26538e-06;10 mA
1801.8;0.323151;493.2;2467;-3.35693e-06;10 mA
1802.4;0.322937;493.8;2470;-3.26538e-06;10 mA
1803;0.322723;494.4;2473;-3.17383e-06;10 mA
1803.6;0.32251;495;2476;-3.23486e-06;10 mA
1804.2;0.322296;495.6;2479;-2.92969e-06;10 mA
1804.8;0.322052;496.2;2482;-3.08228e-06;10 mA
1805.4;0.321838;496.8;2485;-3.14331e-06;10 mA
1806;0.321594;497.4;2488;-3.23486e-06;10 mA
1806.6;0.32135;498;2491;-3.23486e-06;10 mA
1807.2;0.321136;498.6;2494;-3.50952e-06;10 mA
1807.8;0.320923;499.2;2497;-3.20435e-06;10 mA
1808.4;0.320679;499.8;2500;-3.32642e-06;10 mA
1809;0.320465;500.4;2503;-3.26538e-06;10 mA
1809.6;0.320251;501;2506;-3.23486e-06;10 mA
1810.2;0.320007;501.6;2509;-2.92969e-06;10 mA
1810.8;0.319763;502.2;2512;-2.99072e-06;10 mA
1811.4;0.31955;502.8;2515;-3.20435e-06;10 mA
1812;0.319336;503.4;2518;-3.17383e-06;10 mA
1812.6;0.319092;504;2521;-3.2959e-06;10 mA
1813.2;0.318878;504.6;2524;-3.41797e-06;10 mA
1813.8;0.318604;505.2;2527;-3.26538e-06;10 mA
1814.4;0.31839;505.8;2530;-3.26538e-06;10 mA
1815;0.318176;506.4;2533;-3.05176e-06;10 mA
1815.6;0.317963;507;2536;-3.38745e-06;10 mA
1816.2;0.31778;507.6;2539;-3.02124e-06;10 mA
1816.8;0.317566;508.2;2542;-3.41797e-06;10 mA
1817.4;0.317352;508.8;2545;-3.41797e-06;10 mA
1818;0.317139;509.4;2548;-3.02124e-06;10 mA
1818.6;0.316925;510;2551;-3.32642e-06;10 mA
1819.2;0.316711;510.6;2554;-3.02124e-06;10 mA
1819.8;0.316467;511.2;2557;-3.38745e-06;10 mA
1820.4;0.316254;511.8;2560;-3.14331e-06;10 mA
1821;0.31601;512.4;2563;-3.11279e-06;10 mA
1821.6;0.315796;513;2566;-2.83813e-06;10 mA
1822.2;0.315582;513.6;2569;-3.17383e-06;10 mA
1822.8;0.315369;514.2;2572;-3.41797e-06;10 mA
1823.4;0.315155;514.8;2575;-3.02124e-06;10 mA
1824;0.314911;515.4;2578;-2.96021e-06;10 mA
1824.6;0.314697;516;2581;-3.479e-06;10 mA
1825.2;0.314484;516.6;2584;-3.05176e-06;10 mA
1825.8;0.31424;517.2;2587;-3.23486e-06;10 mA
1826.4;0.314026;517.8;2590;-3.20435e-06;10 mA
1827;0.313812;518.4;2593;-3.23486e-06;10 mA
1827.6;0.313629;519;2596;-3.20435e-06;10 mA
1828.2;0.313385;519.6;2599;-3.41797e-06;10 mA
1828.8;0.313171;520.2;2602;-3.20435e-06;10 mA
1829.4;0.312897;520.8;2605;-3.41797e-06;10 mA
1830;0.312683;521.4;2608;-3.20435e-06;10 mA
1830.6;0.312469;522;2611;-2.99072e-06;10 mA
1831.2;0.312225;522.6;2614;-3.38745e-06;10 mA
1831.8;0.312012;523.2;2617;-3.35693e-06;10 mA
1832.4;0.311798;523.8;2620;-3.17383e-06;10 mA
1833;0.311584;524.4;2623;-3.20435e-06;10 mA
1833.6;0.311371;525;2626;-3.38745e-06;10 mA
1834.2;0.311188;525.6;2629;-3.54004e-06;10 mA
1834.8;0.310974;526.2;2632;-2.92969e-06;10 mA
1835.4;0.31076;526.8;2635;-3.2959e-06;10 mA
1836;0.310547;527.4;2638;-2.83813e-06;10 mA
1836.6;0.310333;528;2641;-3.32642e-06;10 mA
1837.2;0.31015;528.6;2644;-3.38745e-06;10 mA
1837.8;0.309937;529.2;2647;-3.35693e-06;10 mA
1838.4;0.309753;529.8;2650;-3.11279e-06;10 mA
1839;0.30954;530.4;2653;-2.99072e-06;10 mA
1839.6;0.309326;531;2656;-3.54004e-06;10 mA
1840.2;0.309052;531.6;2659;-3.50952e-06;10 mA
1840.8;0.308838;532.2;2662;-3.05176e-06;10 mA
1841.4;0.308624;532.8;2665;-3.41797e-06;10 mA
1842;0.308411;533.4;2668;-3.44849e-06;10 mA
1842.6;0.308167;534;2671;-3.11279e-06;10 mA
1843.2;0.307953;534.6;2674;-3.66211e-06;10 mA
1843.8;0.307739;535.2;2677;-2.99072e-06;10 mA
1844.4;0.307526;535.8;2680;-3.17383e-06;10 mA
1845;0.307281;536.4;2683;-3.26538e-06;10 mA
1845.6;0.307037;537;2686;-3.02124e-06;10 mA
1846.2;0.306824;537.6;2689;-3.2959e-06;10 mA
1846.8;0.30661;538.2;2692;-3.2959e-06;10 mA
1847.4;0.306396;538.8;2695;-3.11279e-06;10 mA
1848;0.306183;539.4;2698;-3.60107e-06;10 mA
1848.6;0.305939;540;2701;-2.86865e-06;10 mA
1849.2;0.305695;540.6;2704;-3.26538e-06;10 mA
1849.8;0.30545;541.2;2707;-3.14331e-06;10 mA
1850.4;0.305237;541.8;2710;-3.08228e-06;10 mA
1851;0.304993;542.4;2713;-3.05176e-06;10 mA
1851.6;0.304749;543;2716;-3.72314e-06;10 mA
1852.2;0.304535;543.6;2719;-3.11279e-06;10 mA
1852.8;0.304321;544.2;2722;-3.20435e-06;10 mA
1853.4;0.304108;544.8;2725;-3.23486e-06;10 mA
1854;0.303894;545.4;2728;-3.23486e-06;10 mA
1854.6;0.30365;546;2731;-3.23486e-06;10 mA
1855.2;0.303406;546.6;2734;-2.99072e-06;10 mA
1855.8;0.303192;547.2;2737;-2.92969e-06;10 mA
1856.4;0.302948;547.8;2740;-3.479e-06;10 mA
1857;0.302734;548.4;2743;-3.35693e-06;10 mA
1857.6;0.302521;549;2746;-3.20435e-06;10 mA
1858.2;0.302338;549.6;2749;-3.14331e-06;10 mA
1858.8;0.302094;550.2;2752;-3.17383e-06;10 mA
1859.4;0.30188;550.8;2755;-3.44849e-06;10 mA
1860;0.301636;551.4;2758;-3.08228e-06;10 mA
1860.6;0.301392;552;2761;-3.41797e-06;10 mA
1861.2;0.301208;552.6;2764;-3.17383e-06;10 mA
1861.8;0.300995;553.2;2767;-3.23486e-06;10 mA
1862.4;0.300751;553.8;2770;-3.32642e-06;10 mA
1863;0.300568;554.4;2773;-3.57056e-06;10 mA
1863.6;0.300354;555;2776;-3.60107e-06;10 mA
1864.2;0.30014;555.6;2779;-3.479e-06;10 mA
1864.8;0.299896;556.2;2782;-3.41797e-06;10 mA
1865.4;0.299683;556.8;2785;-3.44849e-06;10 mA
1866;0.299438;557.4;2788;-3.23486e-06;10 mA
1866.6;0.299225;558;2791;-3.23486e-06;10 mA
1867.2;0.299042;558.6;2794;-2.71606e-06;10 mA
1867.8;0.298798;559.2;2797;-3.38745e-06;10 mA
1868.4;0.298584;559.8;2800;-3.38745e-06;10 mA
1869;0.29834;560.4;2803;-3.32642e-06;10 mA
1869.6;0.298126;561;2806;-3.32642e-06;10 mA
1870.2;0.297913;561.6;2809;-3.26538e-06;10 mA
1870.8;0.297699;562.2;2812;-3.41797e-06;10 mA
1871.4;0.297516;562.8;2815;-2.92969e-06;10 mA
1872;0.297302;563.4;2818;-3.41797e-06;10 mA
1872.6;0.297058;564;2821;-3.23486e-06;10 mA
1873.2;0.296875;564.6;2824;-3.17383e-06;10 mA
1873.8;0.296692;565.2;2827;-3.35693e-06;10 mA
1874.4;0.296448;565.8;2830;-3.05176e-06;10 mA
1875;0.296234;566.4;2833;-3.54004e-06;10 mA
1875.6;0.296021;567;2836;-3.26538e-06;10 mA
1876.2;0.295837;567.6;2839;-3.20435e-06;10 mA
1876.8;0.295624;568.2;2842;-3.08228e-06;10 mA
1877.4;0.295441;568.8;2845;-3.02124e-06;10 mA
1878;0.295258;569.4;2848;-3.50952e-06;10 mA
1878.6;0.295074;570;2851;-3.20435e-06;10 mA
1879.2;0.294861;570.6;2854;-3.17383e-06;10 mA
1879.8;0.294678;571.2;2857;-3.57056e-06;10 mA
1880.4;0.294464;571.8;2860;-3.2959e-06;10 mA
1881;0.29425;572.4;2863;-3.44849e-06;10 mA
1881.6;0.294067;573;2866;-3.20435e-06;10 mA
1882.2;0.293854;573.6;2869;-3.32642e-06;10 mA
1882.8;0.293671;574.2;2872;-3.23486e-06;10 mA
1883.4;0.293518;574.8;2875;-2.99072e-06;10 mA
1884;0.293274;575.4;2878;-3.17383e-06;10 mA
1884.6;0.293091;576;2881;-3.35693e-06;10 mA
1885.2;0.292877;576.6;2884;-3.41797e-06;10 mA
1885.8;0.292694;577.2;2887;-3.23486e-06;10 mA
1886.4;0.29248;577.8;2890;-3.60107e-06;10 mA
1887;0.292267;578.4;2893;-3.50952e-06;10 mA
1887.6;0.292053;579;2896;-3.05176e-06;10 mA
1888.2;0.29184;579.6;2899;-3.23486e-06;10 mA
1888.8;0.291626;580.2;2902;-3.38745e-06;10 mA
1889.4;0.291382;580.8;2905;-2.92969e-06;10 mA
1890;0.291199;581.4;2908;-3.2959e-06;10 mA
1890.6;0.291016;582;2911;-3.20435e-06;10 mA
1891.2;0.290802;582.6;2914;-3.54004e-06;10 mA
1891.8;0.290588;583.2;2917;-3.2959e-06;10 mA
1892.4;0.290375;583.8;2920;-3.23486e-06;10 mA
1893;0.290161;584.4;2923;-3.44849e-06;10 mA
1893.6;0.289948;585;2926;-3.05176e-06;10 mA
1894.2;0.289734;585.6;2929;-3.20435e-06;10 mA
1894.8;0.28952;586.2;2932;-3.17383e-06;10 mA
1895.4;0.289307;586.8;2935;-3.17383e-06;10 mA
1896;0.289093;587.4;2938;-3.17383e-06;10 mA
1896.6;0.288879;588;2941;-2.86865e-06;10 mA
1897.2;0.288696;588.6;2944;-3.14331e-06;10 mA
1897.8;0.288483;589.2;2947;-3.11279e-06;10 mA
1898.4;0.288269;589.8;2950;-3.23486e-06;10 mA
1899;0.288055;590.4;2953;-3.44849e-06;10 mA
1899.6;0.287811;591;2956;-3.17383e-06;10 mA
1900.2;0.287598;591.6;2959;-3.17383e-06;10 mA
1900.8;0.287384;592.2;2962;-3.32642e-06;10 mA
1901.4;0.28717;592.8;2965;-3.41797e-06;10 mA
1902;0.286926;593.4;2968;-3.57056e-06;10 mA
1902.6;0.286713;594;2971;-2.92969e-06;10 mA
1903.2;0.286499;594.6;2974;-3.17383e-06;10 mA
1903.8;0.286255;595.2;2977;-2.99072e-06;10 mA
1904.4;0.286011;595.8;2980;-2.96021e-06;10 mA
1905;0.285797;596.4;2983;-2.96021e-06;10 mA
1905.6;0.285553;597;2986;-3.14331e-06;10 mA
1906.2;0.285309;597.6;2989;-3.23486e-06;10 mA
1906.8;0.285065;598.2;2992;-3.32642e-06;10 mA
1907.4;0.284882;598.8;2995;-3.50952e-06;10 mA
1908;0.284637;599.4;2998;-3.26538e-06;10 mA
1908.4;0.284485;599.8;3000;-3.20435e-06;10 mA