File: Mxene1-10Ag-DESCARGA.txt
Time (s);WE(1).Potential (V);Corrected time (s);Index;WE(1).Current (A);Current range;Cutoffs
177.33;0.771179;0;1;-7.92847e-05;10 mA;WE(1).Potential < -0,1 V , WE(1).Potential < -0,1 V , WE(1).Potential < -0,1 V , WE(1).Potential < -0,1 V
177.53;0.743713;0.2;2;-7.83386e-05;10 mA;
177.73;0.722046;0.4;3;-7.75757e-05;10 mA;
177.93;0.704041;0.6;4;-7.72095e-05;10 mA;
178.13;0.688171;0.8;5;-7.85217e-05;10 mA;
178.33;0.673828;1;6;-7.73621e-05;10 mA;
178.53;0.660706;1.2;7;-7.97729e-05;10 mA;
178.73;0.648499;1.4;8;-7.96509e-05;10 mA;
178.93;0.637207;1.6;9;-7.64771e-05;10 mA;
179.13;0.626221;1.8;10;-7.65991e-05;10 mA;
179.33;0.61615;2;11;-7.93457e-05;10 mA;
179.53;0.606384;2.2;12;-7.8186e-05;10 mA;
179.73;0.596924;2.4;13;-8.02307e-05;10 mA;
179.93;0.588074;2.6;14;-7.66296e-05;10 mA;
180.13;0.579224;2.8;15;-7.63245e-05;10 mA;
180.33;0.570984;3;16;-7.88574e-05;10 mA;
180.53;0.563049;3.2;17;-7.66602e-05;10 mA;
180.73;0.555115;3.4;18;-7.83691e-05;10 mA;
180.93;0.547485;3.6;19;-8.02002e-05;10 mA;
181.13;0.540161;3.8;20;-7.91626e-05;10 mA;
181.33;0.532837;4;21;-7.99866e-05;10 mA;
181.53;0.525818;4.2;22;-7.78198e-05;10 mA;
181.73;0.519104;4.4;23;-7.7179e-05;10 mA;
181.93;0.51239;4.6;24;-7.90405e-05;10 mA;
182.13;0.505981;4.8;25;-8.09631e-05;10 mA;
182.33;0.499573;5;26;-7.85828e-05;10 mA;
182.53;0.493469;5.2;27;-7.85828e-05;10 mA;
182.73;0.487396;5.4;28;-7.60803e-05;10 mA;
182.93;0.481506;5.6;29;-7.63245e-05;10 mA;
183.13;0.4758;5.8;30;-7.65686e-05;10 mA;
183.33;0.470123;6;31;-7.83081e-05;10 mA;
183.53;0.46463;6.2;32;-7.70874e-05;10 mA;
183.73;0.459259;6.4;33;-7.94678e-05;10 mA;
183.93;0.453979;6.6;34;-8.00781e-05;10 mA;
184.13;0.448853;6.8;35;-7.62634e-05;10 mA;
184.33;0.443878;7;36;-7.85217e-05;10 mA;
184.53;0.438965;7.2;37;-7.63245e-05;10 mA;
184.73;0.434174;7.4;38;-7.69958e-05;10 mA;
184.93;0.429504;7.6;39;-7.76672e-05;10 mA;
185.13;0.424927;7.8;40;-7.91931e-05;10 mA;
185.33;0.420471;8;41;-7.94678e-05;10 mA;
185.53;0.416107;8.2;42;-7.85828e-05;10 mA;
185.73;0.411865;8.4;43;-7.67822e-05;10 mA;
185.93;0.407715;8.6;44;-7.80334e-05;10 mA;
186.13;0.403656;8.8;45;-8.04443e-05;10 mA;
186.33;0.399658;9;46;-7.85522e-05;10 mA;
186.53;0.395721;9.2;47;-8.01086e-05;10 mA;
186.73;0.391937;9.4;48;-7.62024e-05;10 mA;
186.93;0.388184;9.6;49;-8.02002e-05;10 mA;
187.13;0.384491;9.8;50;-7.81555e-05;10 mA;
187.33;0.38089;10;51;-7.83081e-05;10 mA;
187.53;0.37735;10.2;52;-7.87048e-05;10 mA;
187.73;0.373871;10.4;53;-7.93152e-05;10 mA;
187.93;0.370453;10.6;54;-7.96814e-05;10 mA;
188.13;0.367096;10.8;55;-7.67212e-05;10 mA;
188.33;0.36377;11;56;-7.6416e-05;10 mA;
188.53;0.360535;11.2;57;-7.89795e-05;10 mA;
188.73;0.35733;11.4;58;-7.68433e-05;10 mA;
188.93;0.354187;11.6;59;-7.93457e-05;10 mA;
189.13;0.351074;11.8;60;-7.89795e-05;10 mA;
189.33;0.348022;12;61;-8.02307e-05;10 mA;
189.53;0.344971;12.2;62;-8.02612e-05;10 mA;
189.73;0.341949;12.4;63;-8.02917e-05;10 mA;
189.93;0.338959;12.6;64;-8.01392e-05;10 mA;
190.13;0.336029;12.8;65;-8.05359e-05;10 mA;
190.33;0.33313;13;66;-7.93152e-05;10 mA;
190.53;0.330231;13.2;67;-8.078e-05;10 mA;
190.73;0.327423;13.4;68;-7.96814e-05;10 mA;
190.93;0.324585;13.6;69;-7.79114e-05;10 mA;
191.13;0.321808;13.8;70;-7.70874e-05;10 mA;
191.33;0.319031;14;71;-7.86438e-05;10 mA;
191.53;0.316284;14.2;72;-7.96814e-05;10 mA;
191.73;0.313568;14.4;73;-7.94983e-05;10 mA;
191.93;0.310852;14.6;74;-7.9834e-05;10 mA;
192.13;0.308167;14.8;75;-7.92542e-05;10 mA;
192.33;0.305511;15;76;-7.94983e-05;10 mA;
192.53;0.302826;15.2;77;-7.89795e-05;10 mA;
192.73;0.300171;15.4;78;-7.83386e-05;10 mA;
192.93;0.297577;15.6;79;-8.01392e-05;10 mA;
193.13;0.294983;15.8;80;-8.03528e-05;10 mA;
193.33;0.292389;16;81;-7.77893e-05;10 mA;
193.53;0.289825;16.2;82;-7.82471e-05;10 mA;
193.73;0.287262;16.4;83;-7.87048e-05;10 mA;
193.93;0.284668;16.6;84;-8.06274e-05;10 mA;
194.13;0.282135;16.8;85;-7.85828e-05;10 mA;
194.33;0.279602;17;86;-7.97424e-05;10 mA;
194.53;0.277069;17.2;87;-7.93457e-05;10 mA;
194.73;0.274567;17.4;88;-7.96509e-05;10 mA;
194.93;0.272034;17.6;89;-7.78198e-05;10 mA;
195.13;0.269501;17.8;90;-8.06885e-05;10 mA;
195.33;0.267029;18;91;-7.91626e-05;10 mA;
195.53;0.264526;18.2;92;-8.10852e-05;10 mA;
195.73;0.262024;18.4;93;-7.72705e-05;10 mA;
195.93;0.259552;18.6;94;-8.08716e-05;10 mA;
196.13;0.25708;18.8;95;-7.90405e-05;10 mA;
196.33;0.254639;19;96;-7.98035e-05;10 mA;
196.53;0.252167;19.2;97;-7.77283e-05;10 mA;
196.73;0.249664;19.4;98;-8.05054e-05;10 mA;
196.93;0.247223;19.6;99;-8.04443e-05;10 mA;
197.13;0.244781;19.8;100;-8.08105e-05;10 mA;
197.33;0.24234;20;101;-8.078e-05;10 mA;
197.53;0.239929;20.2;102;-7.86438e-05;10 mA;
197.73;0.237518;20.4;103;-7.72095e-05;10 mA;
197.93;0.235077;20.6;104;-8.01697e-05;10 mA;
198.13;0.232697;20.8;105;-7.80334e-05;10 mA;
198.33;0.230255;21;106;-7.94983e-05;10 mA;
198.53;0.227844;21.2;107;-7.68738e-05;10 mA;
198.73;0.225433;21.4;108;-7.82166e-05;10 mA;
198.93;0.223022;21.6;109;-7.83386e-05;10 mA;
199.13;0.220612;21.8;110;-7.71179e-05;10 mA;
199.33;0.218231;22;111;-7.74231e-05;10 mA;
199.53;0.215881;22.2;112;-7.97424e-05;10 mA;
199.73;0.21347;22.4;113;-7.96204e-05;10 mA;
199.93;0.21109;22.6;114;-7.91626e-05;10 mA;
200.13;0.20874;22.8;115;-7.84302e-05;10 mA;
200.33;0.206329;23;116;-7.86743e-05;10 mA;
200.53;0.203979;23.2;117;-7.71179e-05;10 mA;
200.73;0.20163;23.4;118;-7.90405e-05;10 mA;
200.93;0.19928;23.6;119;-7.67517e-05;10 mA;
201.13;0.19693;23.8;120;-8.05969e-05;10 mA;
201.33;0.19458;24;121;-7.87048e-05;10 mA;
201.53;0.19223;24.2;122;-8.08105e-05;10 mA;
201.73;0.18988;24.4;123;-7.99255e-05;10 mA;
201.93;0.187531;24.6;124;-7.9895e-05;10 mA;
202.13;0.185211;24.8;125;-7.96814e-05;10 mA;
202.33;0.182892;25;126;-7.87048e-05;10 mA;
202.53;0.180573;25.2;127;-7.95898e-05;10 mA;
202.73;0.178253;25.4;128;-7.95288e-05;10 mA;
202.93;0.175934;25.6;129;-7.84607e-05;10 mA;
203.13;0.173584;25.8;130;-7.94983e-05;10 mA;
203.33;0.171295;26;131;-7.94067e-05;10 mA;
203.53;0.169006;26.2;132;-7.91626e-05;10 mA;
203.73;0.166718;26.4;133;-7.95288e-05;10 mA;
203.93;0.164368;26.6;134;-7.86133e-05;10 mA;
204.13;0.162079;26.8;135;-8.03223e-05;10 mA;
204.33;0.15976;27;136;-7.91626e-05;10 mA;
204.53;0.15744;27.2;137;-8.03223e-05;10 mA;
204.73;0.155182;27.4;138;-8.11768e-05;10 mA;
204.93;0.152863;27.6;139;-8.06274e-05;10 mA;
205.13;0.150574;27.8;140;-7.95593e-05;10 mA;
205.33;0.148285;28;141;-7.76062e-05;10 mA;
205.53;0.145996;28.2;142;-8.14514e-05;10 mA;
205.73;0.143738;28.4;143;-7.67517e-05;10 mA;
205.93;0.141449;28.6;144;-8.05359e-05;10 mA;
206.13;0.139191;28.8;145;-8.12683e-05;10 mA;
206.33;0.136902;29;146;-7.94373e-05;10 mA;
206.53;0.134613;29.2;147;-7.58667e-05;10 mA;
206.73;0.132324;29.4;148;-8.12378e-05;10 mA;
206.93;0.130066;29.6;149;-7.99866e-05;10 mA;
207.13;0.127808;29.8;150;-8.03223e-05;10 mA;
207.33;0.125549;30;151;-8.17566e-05;10 mA;
207.53;0.123322;30.2;152;-7.92847e-05;10 mA;
207.73;0.121063;30.4;153;-7.91016e-05;10 mA;
207.93;0.118835;30.6;154;-7.83997e-05;10 mA;
208.13;0.116608;30.8;155;-8.12073e-05;10 mA;
208.33;0.11438;31;156;-7.75757e-05;10 mA;
208.53;0.112152;31.2;157;-7.76672e-05;10 mA;
208.73;0.109924;31.4;158;-7.76367e-05;10 mA;
208.93;0.107727;31.6;159;-7.84912e-05;10 mA;
209.13;0.105469;31.8;160;-7.87048e-05;10 mA;
209.33;0.103271;32;161;-7.92847e-05;10 mA;
209.53;0.101074;32.2;162;-7.82166e-05;10 mA;
209.73;0.0989075;32.4;163;-8.10852e-05;10 mA;
209.93;0.0967407;32.6;164;-8.02002e-05;10 mA;
210.13;0.0946045;32.8;165;-7.80029e-05;10 mA;
210.33;0.0924377;33;166;-7.77588e-05;10 mA;
210.53;0.090271;33.2;167;-8.09937e-05;10 mA;
210.73;0.0881348;33.4;168;-7.88574e-05;10 mA;
210.93;0.085968;33.6;169;-7.95288e-05;10 mA;
211.13;0.0838318;33.8;170;-7.97729e-05;10 mA;
211.33;0.0817261;34;171;-7.98035e-05;10 mA;
211.53;0.0795593;34.2;172;-7.85828e-05;10 mA;
211.73;0.0775146;34.4;173;-7.91931e-05;10 mA;
211.93;0.0754089;34.6;174;-8.03833e-05;10 mA;
212.13;0.0733032;34.8;175;-7.80334e-05;10 mA;
212.33;0.0711975;35;176;-7.8949e-05;10 mA;
212.53;0.0691528;35.2;177;-7.9071e-05;10 mA;
212.73;0.0671082;35.4;178;-7.86743e-05;10 mA;
212.93;0.0650635;35.6;179;-8.03223e-05;10 mA;
213.13;0.0630188;35.8;180;-7.98035e-05;10 mA;
213.33;0.0610046;36;181;-7.8064e-05;10 mA;
213.53;0.0589905;36.2;182;-7.92236e-05;10 mA;
213.73;0.0570068;36.4;183;-8.03528e-05;10 mA;
213.93;0.0549622;36.6;184;-7.94067e-05;10 mA;
214.13;0.052948;36.8;185;-8.04749e-05;10 mA;
214.33;0.0509644;37;186;-7.82471e-05;10 mA;
214.53;0.0489349;37.2;187;-7.80029e-05;10 mA;
214.73;0.0469604;37.4;188;-7.85828e-05;10 mA;
214.93;0.0450104;37.6;189;-7.79419e-05;10 mA;
215.13;0.0430542;37.8;190;-7.87354e-05;10 mA;
215.33;0.0411438;38;191;-8.02002e-05;10 mA;
215.53;0.0392365;38.2;192;-7.8949e-05;10 mA;
215.73;0.0373749;38.4;193;-7.99255e-05;10 mA;
215.93;0.0355286;38.6;194;-7.77588e-05;10 mA;
216.13;0.0336639;38.8;195;-7.9071e-05;10 mA;
216.33;0.0317841;39;196;-7.94678e-05;10 mA;
216.53;0.0299164;39.2;197;-7.96814e-05;10 mA;
216.73;0.0281006;39.4;198;-7.99561e-05;10 mA;
216.93;0.0262817;39.6;199;-8.03528e-05;10 mA;
217.13;0.0244568;39.8;200;-8.13904e-05;10 mA;
217.33;0.0226532;40;201;-7.9071e-05;10 mA;
217.53;0.0208557;40.2;202;-7.83997e-05;10 mA;
217.73;0.0190857;40.4;203;-7.94067e-05;10 mA;
217.93;0.0173157;40.6;204;-7.89795e-05;10 mA;
218.13;0.015564;40.8;205;-7.84607e-05;10 mA;
218.33;0.0138336;41;206;-7.75452e-05;10 mA;
218.53;0.0121002;41.2;207;-7.89795e-05;10 mA;
218.73;0.0103912;41.4;208;-7.80029e-05;10 mA;
218.93;0.00869141;41.6;209;-8.05359e-05;10 mA;
219.13;0.00700989;41.8;210;-8.13904e-05;10 mA;
219.33;0.00534668;42;211;-7.96509e-05;10 mA;
219.53;0.00370789;42.2;212;-7.95593e-05;10 mA;
219.73;0.00203247;42.4;213;-8.0658e-05;10 mA;
219.93;0.000390625;42.6;214;-7.8125E-05;10 mA;
220.13;-0.00123596;42.8;215;-8.09021e-05;10 mA;
220.33;-0.00286865;43;216;-7.74536e-05;10 mA;
220.53;-0.00447388;43.2;217;-8.09631e-05;10 mA;
220.73;-0.00608215;43.4;218;-7.65076e-05;10 mA;
220.93;-0.00767212;43.6;219;-7.80029e-05;10 mA;
221.13;-0.00921936;43.8;220;-7.83691e-05;10 mA;
221.33;-0.0107605;44;221;-7.84912e-05;10 mA;
221.53;-0.0122253;44.2;222;-7.99561e-05;10 mA;
221.73;-0.0137299;44.4;223;-7.91016e-05;10 mA;
221.93;-0.0152435;44.6;224;-8.13904e-05;10 mA;
222.13;-0.0167511;44.8;225;-8.02917e-05;10 mA;
222.33;-0.018222;45;226;-7.85217e-05;10 mA;
222.53;-0.0196747;45.2;227;-8.12683e-05;10 mA;
222.73;-0.021109;45.4;228;-7.7179e-05;10 mA;
222.93;-0.0225616;45.6;229;-7.74536e-05;10 mA;
223.13;-0.0240051;45.8;230;-8.00781e-05;10 mA;
223.33;-0.0254028;46;231;-8.05664e-05;10 mA;
223.53;-0.0267975;46.2;232;-7.88574e-05;10 mA;
223.73;-0.028186;46.4;233;-7.92542e-05;10 mA;
223.93;-0.0295349;46.6;234;-8.05054e-05;10 mA;
224.13;-0.0308807;46.8;235;-8.10547e-05;10 mA;
224.33;-0.0322449;47;236;-8.10547e-05;10 mA;
224.53;-0.0335602;47.2;237;-7.82471e-05;10 mA;
224.73;-0.0348816;47.4;238;-7.83997e-05;10 mA;
224.93;-0.0361969;47.6;239;-7.78198e-05;10 mA;
225.13;-0.0375061;47.8;240;-7.83997e-05;10 mA;
225.33;-0.0387512;48;241;-8.00781e-05;10 mA;
225.53;-0.0400055;48.2;242;-8.10242e-05;10 mA;
225.73;-0.0412415;48.4;243;-7.95593e-05;10 mA;
225.93;-0.0425049;48.6;244;-7.95898e-05;10 mA;
226.13;-0.0437225;48.8;245;-7.88269e-05;10 mA;
226.33;-0.044989;49;246;-8.09937e-05;10 mA;
226.53;-0.046167;49.2;247;-8.14209e-05;10 mA;
226.73;-0.0473846;49.4;248;-7.76978e-05;10 mA;
226.93;-0.0485748;49.6;249;-7.91931e-05;10 mA;
227.13;-0.0497498;49.8;250;-8.05969e-05;10 mA;
227.33;-0.0509338;50;251;-7.91016e-05;10 mA;
227.53;-0.052063;50.2;252;-7.9834e-05;10 mA;
227.73;-0.0531616;50.4;253;-7.87964e-05;10 mA;
227.93;-0.0542297;50.6;254;-8.0658e-05;10 mA;
228.13;-0.0552673;50.8;255;-7.87659e-05;10 mA;
228.33;-0.056366;51;256;-7.85522e-05;10 mA;
228.53;-0.0574341;51.2;257;-7.89185e-05;10 mA;
228.73;-0.0585022;51.4;258;-7.84912e-05;10 mA;
228.93;-0.0595398;51.6;259;-8.09937e-05;10 mA;
229.13;-0.0605469;51.8;260;-8.12683e-05;10 mA;
229.33;-0.0615845;52;261;-8.11462e-05;10 mA;
229.53;-0.062561;52.2;262;-8.03528e-05;10 mA;
229.73;-0.0635376;52.4;263;-7.84302e-05;10 mA;
229.93;-0.0644836;52.6;264;-8.13904e-05;10 mA;
230.13;-0.0654297;52.8;265;-7.58667e-05;10 mA;
230.33;-0.0663757;53;266;-7.85522e-05;10 mA;
230.53;-0.0672913;53.2;267;-7.87354e-05;10 mA;
230.73;-0.0682068;53.4;268;-7.95898e-05;10 mA;
230.93;-0.0690918;53.6;269;-7.58362e-05;10 mA;
231.13;-0.0699768;53.8;270;-8.08105e-05;10 mA;
231.33;-0.0708618;54;271;-7.82471e-05;10 mA;
231.53;-0.0717163;54.2;272;-8.02917e-05;10 mA;
231.73;-0.0726013;54.4;273;-8.11157e-05;10 mA;
231.93;-0.0734558;54.6;274;-7.76062e-05;10 mA;
232.13;-0.0742798;54.8;275;-7.91931e-05;10 mA;
232.33;-0.0751343;55;276;-8.00781e-05;10 mA;
232.53;-0.0759277;55.2;277;-7.74231e-05;10 mA;
232.73;-0.0767212;55.4;278;-8.02002e-05;10 mA;
232.93;-0.0775452;55.6;279;-7.75146e-05;10 mA;
233.13;-0.0783386;55.8;280;-7.83386e-05;10 mA;
233.33;-0.0791016;56;281;-7.82471e-05;10 mA;
233.53;-0.0798645;56.2;282;-8.03223e-05;10 mA;
233.73;-0.0805664;56.4;283;-7.724e-05;10 mA;
233.93;-0.0812988;56.6;284;-7.93457e-05;10 mA;
234.13;-0.08203125;56.8;285;-7.99866e-05;10 mA;
234.33;-0.0827332;57;286;-7.76367e-05;10 mA;
234.53;-0.0834351;57.2;287;-8.05664e-05;10 mA;
234.73;-0.0841675;57.4;288;-7.91016e-05;10 mA;
234.93;-0.0848694;57.6;289;-7.92847e-05;10 mA;
235.13;-0.0855408;57.8;290;-7.8125E-05;10 mA;
235.33;-0.0862427;58;291;-7.87964e-05;10 mA;
235.53;-0.0868835;58.2;292;-7.98645e-05;10 mA;
235.73;-0.0875854;58.4;293;-7.97119e-05;10 mA;
235.93;-0.0882263;58.6;294;-7.97119e-05;10 mA;
236.13;-0.0888672;58.8;295;-7.72705e-05;10 mA;
236.33;-0.0895081;59;296;-7.76062e-05;10 mA;
236.53;-0.0901489;59.2;297;-7.74536e-05;10 mA;
236.73;-0.0907898;59.4;298;-8.09021e-05;10 mA;
236.93;-0.0914001;59.6;299;-8.10547e-05;10 mA;
237.13;-0.092041;59.8;300;-7.76978e-05;10 mA;
237.33;-0.0926819;60;301;-7.77588e-05;10 mA;
237.53;-0.0932617;60.2;302;-7.96814e-05;10 mA;
237.73;-0.0938416;60.4;303;-7.84302e-05;10 mA;
237.93;-0.0944519;60.6;304;-7.8125E-05;10 mA;
238.13;-0.0950317;60.8;305;-7.95593e-05;10 mA;
238.33;-0.0955811;61;306;-7.95898e-05;10 mA;
238.53;-0.0961304;61.2;307;-7.97119e-05;10 mA;
238.73;-0.0967102;61.4;308;-7.75757e-05;10 mA;
238.93;-0.0972595;61.6;309;-7.9071e-05;10 mA;
239.13;-0.0978394;61.8;310;-7.98035e-05;10 mA;
239.33;-0.0983887;62;311;-7.89795e-05;10 mA;
239.53;-0.098877;62.2;312;-7.85217e-05;10 mA;
239.73;-0.0993958;62.4;313;-8.05664e-05;10 mA;
239.93;-0.099884;62.6;314;-7.86743e-05;10 mA;
240.13;-0.100372;62.8;315;-7.73621e-05;10 mA;WE(1).Potential < -0,1 V
240.33;-0.100891;63;316;-8.05664e-05;10 mA;WE(1).Potential < -0,1 V
240.53;-0.101349;63.2;317;-7.80334e-05;10 mA;WE(1).Potential < -0,1 V
240.73;-0.101868;63.4;318;-7.91626e-05;10 mA;WE(1).Potential < -0,1 V